File: demo_data/empty_103-303-2.txt
Filename:	C:\Program Files (x86)\PerkinElmer\Pyris\data\empty_103-303-2.ds8d
Operator ID:
Sample ID:	Empty
Comment:
Serial Number:
Data Collected:	7/16/2024 6:21:19 PM
Sample Weight:	0.000 mg
Display Weight:	0.000
Validation
Validated:	No
By:
Date:
Calibration Information
Filename:	C:\Program Files (x86)\PerkinElmer\Pyris\Calibrations\Calib100to400_07162024-1.ds8c
Date/Time:	7/16/2024 3:47:43 PM
Initial Conditions
Temperature:	 103.00 °C
Purge Gas:
Purge Gas Rate:
Baseline Filename:
End Condition:	Go To Load
Total Points in Run:	44948
Method Steps:
Pre-Run Actions
Switch the Gas to Nitrogen at 20.0 ml/min
	Action occurs Immediately
Start the Run
	Action occurs Immediately
1)	Hold for 5.0 min at 103.00°C

2)	Heat from 103.00°C to 113.00°C at 15.00°C/min

3)	Hold for 2.0 min at 113.00°C

4)	Heat from 113.00°C to 123.00°C at 15.00°C/min

5)	Hold for 2.0 min at 123.00°C

6)	Heat from 123.00°C to 133.00°C at 15.00°C/min

7)	Hold for 2.0 min at 133.00°C

8)	Heat from 133.00°C to 143.00°C at 15.00°C/min

9)	Hold for 2.0 min at 143.00°C

10)	Heat from 143.00°C to 153.00°C at 15.00°C/min

11)	Hold for 2.0 min at 153.00°C

12)	Heat from 153.00°C to 163.00°C at 15.00°C/min

13)	Hold for 2.0 min at 163.00°C

14)	Heat from 163.00°C to 173.00°C at 15.00°C/min

15)	Hold for 2.0 min at 173.00°C

16)	Heat from 173.00°C to 183.00°C at 15.00°C/min

17)	Hold for 2.0 min at 183.00°C

18)	Heat from 183.00°C to 193.00°C at 15.00°C/min

19)	Hold for 2.0 min at 193.00°C

20)	Heat from 193.00°C to 203.00°C at 15.00°C/min

21)	Hold for 2.0 min at 203.00°C

22)	Heat from 203.00°C to 213.00°C at 15.00°C/min

23)	Hold for 2.0 min at 213.00°C

24)	Heat from 213.00°C to 223.00°C at 15.00°C/min

25)	Hold for 2.0 min at 223.00°C

26)	Heat from 223.00°C to 233.00°C at 15.00°C/min

27)	Hold for 2.0 min at 233.00°C

28)	Heat from 233.00°C to 243.00°C at 15.00°C/min

29)	Hold for 2.0 min at 243.00°C

30)	Heat from 243.00°C to 253.00°C at 15.00°C/min

31)	Hold for 2.0 min at 253.00°C

32)	Heat from 253.00°C to 263.00°C at 15.00°C/min

33)	Hold for 2.0 min at 263.00°C

34)	Heat from 263.00°C to 273.00°C at 15.00°C/min

35)	Hold for 2.0 min at 273.00°C

36)	Heat from 273.00°C to 283.00°C at 15.00°C/min

37)	Hold for 2.0 min at 283.00°C

38)	Heat from 283.00°C to 293.00°C at 15.00°C/min

39)	Hold for 2.0 min at 293.00°C

40)	Heat from 293.00°C to 303.00°C at 15.00°C/min

41)	Hold for 3.0 min at 303.00°C

1) DSC 8500 Isothermal
	Time     	Unsubtracted	Baseline     	Program     	Sample     	Approx.     	Heat Flow     	Uncorrected
	          	Heat Flow     	Heat Flow     	Temperature	Temperature	Gas Flow     	Calibration	Heat Flow
	0.000000	10.4976	0.000000	103	100.854	0.000000	1.062475	12.8771
	0.016667	15.3776	0.000000	103	102.15	0.000000	1.062494	10.3376
	0.033333	15.9242	0.000000	103	102.545	0.000000	1.062500	10.4211
	0.050000	17.233	0.000000	103	102.687	0.000000	1.062503	11.7227
	0.066667	18.1138	0.000000	103	102.758	0.000000	1.062504	12.7843
	0.083333	18.1714	0.000000	103	102.812	0.000000	1.062504	12.8608
	0.100000	17.3045	0.000000	103	102.854	0.000000	1.062505	11.9863
	0.116667	15.6036	0.000000	103	102.883	0.000000	1.062505	10.5581
	0.133333	13.3285	0.000000	103	102.904	0.000000	1.062506	8.974774
	0.150000	10.8644	0.000000	103	102.92	0.000000	1.062506	7.495024
	0.166667	8.524906	0.000000	103	102.933	0.000000	1.062506	6.238930
	0.183333	6.497339	0.000000	103	102.941	0.000000	1.062506	5.234650
	0.200000	4.847910	0.000000	103	102.95	0.000000	1.062506	4.462421
	0.216667	3.561192	0.000000	103	102.954	0.000000	1.062507	3.883674
	0.233333	2.588131	0.000000	103	102.954	0.000000	1.062507	3.458034
	0.250000	1.866182	0.000000	103	102.958	0.000000	1.062507	3.148738
	0.266667	1.337311	0.000000	103	102.962	0.000000	1.062507	2.925931
	0.283333	0.953820	0.000000	103	102.962	0.000000	1.062507	2.766449
	0.300000	0.677949	0.000000	103	102.966	0.000000	1.062507	2.652867
	0.316667	0.481499	0.000000	103	102.966	0.000000	1.062507	2.572223
	0.333333	0.343130	0.000000	103	102.966	0.000000	1.062507	2.515272
	0.350000	0.244019	0.000000	103	102.966	0.000000	1.062507	2.475109
	0.366667	0.171101	0.000000	103	102.97	0.000000	1.062507	2.446634
	0.383333	0.117575	0.000000	103	102.97	0.000000	1.062507	2.426447
	0.400000	0.081549	0.000000	103	102.966	0.000000	1.062507	2.412422
	0.416667	0.057572	0.000000	103	102.97	0.000000	1.062507	2.402859
	0.433333	0.038356	0.000000	103	102.97	0.000000	1.062507	2.396272
	0.450000	0.024060	0.000000	103	102.97	0.000000	1.062507	2.391597
	0.466667	0.016214	0.000000	103	102.97	0.000000	1.062507	2.388515
	0.483333	0.009441	0.000000	103	102.97	0.000000	1.062507	2.386496
	0.500000	0.005480	0.000000	103	102.97	0.000000	1.062507	2.385009
	0.516667	0.004417	0.000000	103	102.97	0.000000	1.062507	2.383946
	0.533333	0.003886	0.000000	103	102.97	0.000000	1.062507	2.383415
	0.550000	0.003461	0.000000	103	102.97	0.000000	1.062507	2.382990
	0.566667	0.003248	0.000000	103	102.97	0.000000	1.062507	2.382778
	0.583333	0.003461	0.000000	103	102.97	0.000000	1.062507	2.382990
	0.600000	0.003567	0.000000	103	102.97	0.000000	1.062507	2.383096
	0.616667	0.003780	0.000000	103	102.97	0.000000	1.062507	2.383309
	0.633333	0.003992	0.000000	103	102.97	0.000000	1.062507	2.383521
	0.650000	0.003992	0.000000	103	102.97	0.000000	1.062507	2.383521
	0.666667	0.004205	0.000000	103	102.97	0.000000	1.062507	2.383734
	0.683333	0.004630	0.000000	103	102.97	0.000000	1.062507	2.384159
	0.700000	0.004736	0.000000	103	102.97	0.000000	1.062507	2.384265
	0.716667	0.004842	0.000000	103	102.97	0.000000	1.062507	2.384371
	0.733333	0.005055	0.000000	103	102.97	0.000000	1.062507	2.384584
	0.750000	0.005161	0.000000	103	102.97	0.000000	1.062507	2.384690
	0.766667	0.005480	0.000000	103	102.97	0.000000	1.062507	2.385009
	0.783333	0.005798	0.000000	103	102.97	0.000000	1.062507	2.385328
	0.800000	0.006117	0.000000	103	102.97	0.000000	1.062507	2.385646
	0.816667	0.006223	0.000000	103	102.97	0.000000	1.062507	2.385753
	0.833333	0.006436	0.000000	103	102.97	0.000000	1.062507	2.385965
	0.850000	0.006648	0.000000	103	102.97	0.000000	1.062507	2.386178
	0.866667	0.006755	0.000000	103	102.97	0.000000	1.062507	2.386284
	0.883333	0.006967	0.000000	103	102.97	0.000000	1.062507	2.386496
	0.900000	0.007180	0.000000	103	102.97	0.000000	1.062507	2.386709
	0.916667	0.007392	0.000000	103	102.97	0.000000	1.062507	2.386921
	0.933333	0.007605	0.000000	103	102.97	0.000000	1.062507	2.387134
	0.950000	0.008030	0.000000	103	102.97	0.000000	1.062507	2.387559
	0.966667	0.008136	0.000000	103	102.97	0.000000	1.062507	2.387665
	0.983333	0.008030	0.000000	103	102.97	0.000000	1.062507	2.387559
	1.000000	0.008136	0.000000	103	102.97	0.000000	1.062507	2.387665
	1.016667	0.007923	0.000000	103	102.97	0.000000	1.062507	2.387453
	1.033333	0.008242	0.000000	103	102.97	0.000000	1.062507	2.387771
	1.050000	0.008348	0.000000	103	102.97	0.000000	1.062507	2.387878
	1.066667	0.008561	0.000000	103	102.97	0.000000	1.062507	2.388090
	1.083333	0.008880	0.000000	103	102.97	0.000000	1.062507	2.388409
	1.100000	0.009092	0.000000	103	102.97	0.000000	1.062507	2.388621
	1.116667	0.009305	0.000000	103	102.97	0.000000	1.062507	2.388834
	1.133333	0.009411	0.000000	103	102.97	0.000000	1.062507	2.388940
	1.150000	0.009411	0.000000	103	102.97	0.000000	1.062507	2.388940
	1.166667	0.009517	0.000000	103	102.97	0.000000	1.062507	2.389047
	1.183333	0.009411	0.000000	103	102.97	0.000000	1.062507	2.388940
	1.200000	0.009411	0.000000	103	102.97	0.000000	1.062507	2.388940
	1.216667	0.009623	0.000000	103	102.97	0.000000	1.062507	2.389153
	1.233333	0.009836	0.000000	103	102.97	0.000000	1.062507	2.389365
	1.250000	0.009942	0.000000	103	102.97	0.000000	1.062507	2.389472
	1.266667	0.010155	0.000000	103	102.97	0.000000	1.062507	2.389684
	1.283333	0.010473	0.000000	103	102.97	0.000000	1.062507	2.390003
	1.300000	0.010580	0.000000	103	102.97	0.000000	1.062507	2.390109
	1.316667	0.010473	0.000000	103	102.97	0.000000	1.062507	2.390003
	1.333333	0.010473	0.000000	103	102.97	0.000000	1.062507	2.390003
	1.350000	0.010367	0.000000	103	102.97	0.000000	1.062507	2.389897
	1.366667	0.010367	0.000000	103	102.97	0.000000	1.062507	2.389897
	1.383333	0.010473	0.000000	103	102.97	0.000000	1.062507	2.390003
	1.400000	0.010686	0.000000	103	102.97	0.000000	1.062507	2.390215
	1.416667	0.010686	0.000000	103	102.97	0.000000	1.062507	2.390215
	1.433333	0.010898	0.000000	103	102.97	0.000000	1.062507	2.390428
	1.450000	0.010898	0.000000	103	102.97	0.000000	1.062507	2.390428
	1.466667	0.010792	0.000000	103	102.97	0.000000	1.062507	2.390322
	1.483333	0.010792	0.000000	103	102.97	0.000000	1.062507	2.390322
	1.500000	0.010898	0.000000	103	102.97	0.000000	1.062507	2.390428
	1.516667	0.010792	0.000000	103	102.97	0.000000	1.062507	2.390322
	1.533333	0.010580	0.000000	103	102.97	0.000000	1.062507	2.390109
	1.550000	0.010367	0.000000	103	102.97	0.000000	1.062507	2.389897
	1.566667	0.010367	0.000000	103	102.97	0.000000	1.062507	2.389897
	1.583333	0.010580	0.000000	103	102.97	0.000000	1.062507	2.390109
	1.600000	0.010473	0.000000	103	102.97	0.000000	1.062507	2.390003
	1.616667	0.010261	0.000000	103	102.97	0.000000	1.062507	2.389790
	1.633333	0.010155	0.000000	103	102.97	0.000000	1.062507	2.389684
	1.650000	0.010048	0.000000	103	102.97	0.000000	1.062507	2.389578
	1.666667	0.009730	0.000000	103	102.97	0.000000	1.062507	2.389259
	1.683333	0.009730	0.000000	103	102.97	0.000000	1.062507	2.389259
	1.700000	0.009623	0.000000	103	102.97	0.000000	1.062507	2.389153
	1.716667	0.009517	0.000000	103	102.97	0.000000	1.062507	2.389047
	1.733333	0.009730	0.000000	103	102.97	0.000000	1.062507	2.389259
	1.750000	0.009730	0.000000	103	102.97	0.000000	1.062507	2.389259
	1.766667	0.009623	0.000000	103	102.97	0.000000	1.062507	2.389153
	1.783333	0.009517	0.000000	103	102.97	0.000000	1.062507	2.389047
	1.800000	0.009623	0.000000	103	102.97	0.000000	1.062507	2.389153
	1.816667	0.009623	0.000000	103	102.97	0.000000	1.062507	2.389153
	1.833333	0.009517	0.000000	103	102.97	0.000000	1.062507	2.389047
	1.850000	0.009517	0.000000	103	102.97	0.000000	1.062507	2.389047
	1.866667	0.009517	0.000000	103	102.97	0.000000	1.062507	2.389047
	1.883333	0.009411	0.000000	103	102.97	0.000000	1.062507	2.388940
	1.900000	0.009517	0.000000	103	102.97	0.000000	1.062507	2.389047
	1.916667	0.009517	0.000000	103	102.97	0.000000	1.062507	2.389047
	1.933333	0.009411	0.000000	103	102.97	0.000000	1.062507	2.388940
	1.950000	0.009411	0.000000	103	102.97	0.000000	1.062507	2.388940
	1.966667	0.009411	0.000000	103	102.97	0.000000	1.062507	2.388940
	1.983333	0.009305	0.000000	103	102.97	0.000000	1.062507	2.388834
	2.000000	0.009198	0.000000	103	102.97	0.000000	1.062507	2.388728
	2.016667	0.009198	0.000000	103	102.97	0.000000	1.062507	2.388728
	2.033333	0.009092	0.000000	103	102.97	0.000000	1.062507	2.388621
	2.050000	0.008986	0.000000	103	102.97	0.000000	1.062507	2.388515
	2.066667	0.009092	0.000000	103	102.97	0.000000	1.062507	2.388621
	2.083333	0.009305	0.000000	103	102.97	0.000000	1.062507	2.388834
	2.100000	0.009411	0.000000	103	102.97	0.000000	1.062507	2.388940
	2.116667	0.009623	0.000000	103	102.97	0.000000	1.062507	2.389153
	2.133333	0.009730	0.000000	103	102.97	0.000000	1.062507	2.389259
	2.150000	0.009836	0.000000	103	102.97	0.000000	1.062507	2.389365
	2.166667	0.009836	0.000000	103	102.97	0.000000	1.062507	2.389365
	2.183333	0.010048	0.000000	103	102.97	0.000000	1.062507	2.389578
	2.200000	0.010155	0.000000	103	102.97	0.000000	1.062507	2.389684
	2.216667	0.010473	0.000000	103	102.97	0.000000	1.062507	2.390003
	2.233333	0.010686	0.000000	103	102.97	0.000000	1.062507	2.390215
	2.250000	0.010792	0.000000	103	102.97	0.000000	1.062507	2.390322
	2.266667	0.010792	0.000000	103	102.97	0.000000	1.062507	2.390322
	2.283333	0.011005	0.000000	103	102.97	0.000000	1.062507	2.390534
	2.300000	0.010898	0.000000	103	102.97	0.000000	1.062507	2.390428
	2.316667	0.010898	0.000000	103	102.97	0.000000	1.062507	2.390428
	2.333333	0.011111	0.000000	103	102.97	0.000000	1.062507	2.390640
	2.350000	0.011111	0.000000	103	102.97	0.000000	1.062507	2.390640
	2.366667	0.011111	0.000000	103	102.97	0.000000	1.062507	2.390640
	2.383333	0.010898	0.000000	103	102.97	0.000000	1.062507	2.390428
	2.400000	0.011005	0.000000	103	102.97	0.000000	1.062507	2.390534
	2.416667	0.011111	0.000000	103	102.97	0.000000	1.062507	2.390640
	2.433333	0.011217	0.000000	103	102.97	0.000000	1.062507	2.390747
	2.450000	0.011323	0.000000	103	102.97	0.000000	1.062507	2.390853
	2.466667	0.011430	0.000000	103	102.97	0.000000	1.062507	2.390959
	2.483333	0.011323	0.000000	103	102.97	0.000000	1.062507	2.390853
	2.500000	0.011430	0.000000	103	102.97	0.000000	1.062507	2.390959
	2.516667	0.011323	0.000000	103	102.97	0.000000	1.062507	2.390853
	2.533333	0.011217	0.000000	103	102.97	0.000000	1.062507	2.390747
	2.550000	0.011323	0.000000	103	102.97	0.000000	1.062507	2.390853
	2.566667	0.011323	0.000000	103	102.97	0.000000	1.062507	2.390853
	2.583333	0.011430	0.000000	103	102.97	0.000000	1.062507	2.390959
	2.600000	0.011642	0.000000	103	102.97	0.000000	1.062507	2.391172
	2.616667	0.011748	0.000000	103	102.97	0.000000	1.062507	2.391278
	2.633333	0.011642	0.000000	103	102.97	0.000000	1.062507	2.391172
	2.650000	0.011855	0.000000	103	102.97	0.000000	1.062507	2.391384
	2.666667	0.011855	0.000000	103	102.97	0.000000	1.062507	2.391384
	2.683333	0.012067	0.000000	103	102.966	0.000000	1.062507	2.391596
	2.700000	0.012173	0.000000	103	102.97	0.000000	1.062507	2.391703
	2.716667	0.012173	0.000000	103	102.97	0.000000	1.062507	2.391703
	2.733333	0.012173	0.000000	103	102.97	0.000000	1.062507	2.391703
	2.750000	0.012280	0.000000	103	102.97	0.000000	1.062507	2.391809
	2.766667	0.012386	0.000000	103	102.97	0.000000	1.062507	2.391915
	2.783333	0.012386	0.000000	103	102.97	0.000000	1.062507	2.391915
	2.800000	0.012386	0.000000	103	102.97	0.000000	1.062507	2.391915
	2.816667	0.012598	0.000000	103	102.97	0.000000	1.062507	2.392128
	2.833333	0.012811	0.000000	103	102.97	0.000000	1.062507	2.392340
	2.850000	0.012917	0.000000	103	102.97	0.000000	1.062507	2.392447
	2.866667	0.013023	0.000000	103	102.97	0.000000	1.062507	2.392553
	2.883333	0.013023	0.000000	103	102.97	0.000000	1.062507	2.392553
	2.900000	0.012917	0.000000	103	102.966	0.000000	1.062507	2.392446
	2.916667	0.012917	0.000000	103	102.966	0.000000	1.062507	2.392446
	2.933333	0.013023	0.000000	103	102.97	0.000000	1.062507	2.392553
	2.950000	0.013236	0.000000	103	102.97	0.000000	1.062507	2.392765
	2.966667	0.013236	0.000000	103	102.97	0.000000	1.062507	2.392765
	2.983333	0.013342	0.000000	103	102.97	0.000000	1.062507	2.392872
	3.000000	0.013448	0.000000	103	102.97	0.000000	1.062507	2.392978
	3.016667	0.013661	0.000000	103	102.97	0.000000	1.062507	2.393190
	3.033333	0.013661	0.000000	103	102.97	0.000000	1.062507	2.393190
	3.050000	0.013661	0.000000	103	102.97	0.000000	1.062507	2.393190
	3.066667	0.013767	0.000000	103	102.97	0.000000	1.062507	2.393297
	3.083333	0.013873	0.000000	103	102.97	0.000000	1.062507	2.393403
	3.100000	0.014086	0.000000	103	102.97	0.000000	1.062507	2.393615
	3.116667	0.014192	0.000000	103	102.97	0.000000	1.062507	2.393722
	3.133333	0.014511	0.000000	103	102.97	0.000000	1.062507	2.394040
	3.150000	0.014511	0.000000	103	102.966	0.000000	1.062507	2.394040
	3.166667	0.014617	0.000000	103	102.97	0.000000	1.062507	2.394147
	3.183333	0.014617	0.000000	103	102.966	0.000000	1.062507	2.394146
	3.200000	0.014830	0.000000	103	102.966	0.000000	1.062507	2.394359
	3.216667	0.015042	0.000000	103	102.97	0.000000	1.062507	2.394572
	3.233333	0.015148	0.000000	103	102.97	0.000000	1.062507	2.394678
	3.250000	0.015467	0.000000	103	102.97	0.000000	1.062507	2.394997
	3.266667	0.015467	0.000000	103	102.97	0.000000	1.062507	2.394997
	3.283333	0.015467	0.000000	103	102.97	0.000000	1.062507	2.394997
	3.300000	0.015786	0.000000	103	102.966	0.000000	1.062507	2.395315
	3.316667	0.015998	0.000000	103	102.97	0.000000	1.062507	2.395528
	3.333333	0.016105	0.000000	103	102.97	0.000000	1.062507	2.395634
	3.350000	0.015998	0.000000	103	102.966	0.000000	1.062507	2.395528
	3.366667	0.015998	0.000000	103	102.97	0.000000	1.062507	2.395528
	3.383333	0.016105	0.000000	103	102.966	0.000000	1.062507	2.395634
	3.400000	0.016423	0.000000	103	102.97	0.000000	1.062507	2.395953
	3.416667	0.016423	0.000000	103	102.97	0.000000	1.062507	2.395953
	3.433333	0.016317	0.000000	103	102.966	0.000000	1.062507	2.395846
	3.450000	0.016317	0.000000	103	102.966	0.000000	1.062507	2.395846
	3.466667	0.016317	0.000000	103	102.97	0.000000	1.062507	2.395847
	3.483333	0.016317	0.000000	103	102.966	0.000000	1.062507	2.395846
	3.500000	0.016211	0.000000	103	102.97	0.000000	1.062507	2.395740
	3.516667	0.016105	0.000000	103	102.97	0.000000	1.062507	2.395634
	3.533333	0.015998	0.000000	103	102.966	0.000000	1.062507	2.395528
	3.550000	0.015998	0.000000	103	102.966	0.000000	1.062507	2.395528
	3.566667	0.015892	0.000000	103	102.966	0.000000	1.062507	2.395421
	3.583333	0.015680	0.000000	103	102.966	0.000000	1.062507	2.395209
	3.600000	0.015680	0.000000	103	102.966	0.000000	1.062507	2.395209
	3.616667	0.015467	0.000000	103	102.966	0.000000	1.062507	2.394996
	3.633333	0.015467	0.000000	103	102.966	0.000000	1.062507	2.394996
	3.650000	0.015467	0.000000	103	102.966	0.000000	1.062507	2.394996
	3.666667	0.015361	0.000000	103	102.97	0.000000	1.062507	2.394890
	3.683333	0.015148	0.000000	103	102.966	0.000000	1.062507	2.394678
	3.700000	0.015042	0.000000	103	102.966	0.000000	1.062507	2.394571
	3.716667	0.014936	0.000000	103	102.97	0.000000	1.062507	2.394465
	3.733333	0.014936	0.000000	103	102.966	0.000000	1.062507	2.394465
	3.750000	0.014723	0.000000	103	102.966	0.000000	1.062507	2.394253
	3.766667	0.014617	0.000000	103	102.966	0.000000	1.062507	2.394146
	3.783333	0.014405	0.000000	103	102.97	0.000000	1.062507	2.393934
	3.800000	0.014298	0.000000	103	102.966	0.000000	1.062507	2.393828
	3.816667	0.014298	0.000000	103	102.966	0.000000	1.062507	2.393828
	3.833333	0.014192	0.000000	103	102.97	0.000000	1.062507	2.393722
	3.850000	0.014298	0.000000	103	102.966	0.000000	1.062507	2.393828
	3.866667	0.014298	0.000000	103	102.966	0.000000	1.062507	2.393828
	3.883333	0.014298	0.000000	103	102.966	0.000000	1.062507	2.393828
	3.900000	0.014298	0.000000	103	102.966	0.000000	1.062507	2.393828
	3.916667	0.014192	0.000000	103	102.966	0.000000	1.062507	2.393721
	3.933333	0.014298	0.000000	103	102.966	0.000000	1.062507	2.393828
	3.950000	0.014298	0.000000	103	102.966	0.000000	1.062507	2.393828
	3.966667	0.014192	0.000000	103	102.966	0.000000	1.062507	2.393721
	3.983333	0.014192	0.000000	103	102.966	0.000000	1.062507	2.393721
	4.000000	0.013980	0.000000	103	102.966	0.000000	1.062507	2.393509
	4.016667	0.014086	0.000000	103	102.966	0.000000	1.062507	2.393615
	4.033333	0.014192	0.000000	103	102.966	0.000000	1.062507	2.393721
	4.050000	0.014298	0.000000	103	102.966	0.000000	1.062507	2.393828
	4.066667	0.013980	0.000000	103	102.966	0.000000	1.062507	2.393509
	4.083333	0.013873	0.000000	103	102.966	0.000000	1.062507	2.393403
	4.100000	0.013873	0.000000	103	102.966	0.000000	1.062507	2.393403
	4.116667	0.013873	0.000000	103	102.966	0.000000	1.062507	2.393403
	4.133333	0.013873	0.000000	103	102.966	0.000000	1.062507	2.393403
	4.150000	0.013767	0.000000	103	102.966	0.000000	1.062507	2.393296
	4.166667	0.013767	0.000000	103	102.966	0.000000	1.062507	2.393296
	4.183333	0.013661	0.000000	103	102.966	0.000000	1.062507	2.393190
	4.200000	0.013661	0.000000	103	102.966	0.000000	1.062507	2.393190
	4.216667	0.013661	0.000000	103	102.966	0.000000	1.062507	2.393190
	4.233333	0.013767	0.000000	103	102.966	0.000000	1.062507	2.393296
	4.250000	0.013767	0.000000	103	102.966	0.000000	1.062507	2.393296
	4.266667	0.013767	0.000000	103	102.966	0.000000	1.062507	2.393296
	4.283333	0.013767	0.000000	103	102.966	0.000000	1.062507	2.393296
	4.300000	0.013767	0.000000	103	102.966	0.000000	1.062507	2.393296
	4.316667	0.013873	0.000000	103	102.966	0.000000	1.062507	2.393403
	4.333333	0.013980	0.000000	103	102.966	0.000000	1.062507	2.393509
	4.350000	0.014086	0.000000	103	102.966	0.000000	1.062507	2.393615
	4.366667	0.014192	0.000000	103	102.966	0.000000	1.062507	2.393721
	4.383333	0.014405	0.000000	103	102.966	0.000000	1.062507	2.393934
	4.400000	0.014723	0.000000	103	102.966	0.000000	1.062507	2.394253
	4.416667	0.014936	0.000000	103	102.966	0.000000	1.062507	2.394465
	4.433333	0.015148	0.000000	103	102.966	0.000000	1.062507	2.394678
	4.450000	0.015573	0.000000	103	102.966	0.000000	1.062507	2.395103
	4.466667	0.015892	0.000000	103	102.966	0.000000	1.062507	2.395421
	4.483333	0.015786	0.000000	103	102.966	0.000000	1.062507	2.395315
	4.500000	0.015786	0.000000	103	102.966	0.000000	1.062507	2.395315
	4.516667	0.015892	0.000000	103	102.966	0.000000	1.062507	2.395421
	4.533333	0.016105	0.000000	103	102.966	0.000000	1.062507	2.395634
	4.550000	0.015998	0.000000	103	102.966	0.000000	1.062507	2.395528
	4.566667	0.016317	0.000000	103	102.966	0.000000	1.062507	2.395846
	4.583333	0.016423	0.000000	103	102.966	0.000000	1.062507	2.395953
	4.600000	0.016530	0.000000	103	102.966	0.000000	1.062507	2.396059
	4.616667	0.016636	0.000000	103	102.966	0.000000	1.062507	2.396165
	4.633333	0.016742	0.000000	103	102.966	0.000000	1.062507	2.396271
	4.650000	0.016848	0.000000	103	102.966	0.000000	1.062507	2.396378
	4.666667	0.016742	0.000000	103	102.966	0.000000	1.062507	2.396271
	4.683333	0.016636	0.000000	103	102.966	0.000000	1.062507	2.396165
	4.700000	0.016636	0.000000	103	102.966	0.000000	1.062507	2.396165
	4.716667	0.016636	0.000000	103	102.966	0.000000	1.062507	2.396165
	4.733333	0.016530	0.000000	103	102.966	0.000000	1.062507	2.396059
	4.750000	0.016530	0.000000	103	102.966	0.000000	1.062507	2.396059
	4.766667	0.016423	0.000000	103	102.966	0.000000	1.062507	2.395953
	4.783333	0.016211	0.000000	103	102.966	0.000000	1.062507	2.395740
	4.800000	0.016211	0.000000	103	102.966	0.000000	1.062507	2.395740
	4.816667	0.016211	0.000000	103	102.966	0.000000	1.062507	2.395740
	4.833333	0.016105	0.000000	103	102.966	0.000000	1.062507	2.395634
	4.850000	0.015998	0.000000	103	102.966	0.000000	1.062507	2.395528
	4.866667	0.015786	0.000000	103	102.966	0.000000	1.062507	2.395315
	4.883333	0.015892	0.000000	103	102.966	0.000000	1.062507	2.395421
	4.900000	0.015892	0.000000	103	102.966	0.000000	1.062507	2.395421
	4.916667	0.015786	0.000000	103	102.966	0.000000	1.062507	2.395315
	4.933333	0.015680	0.000000	103	102.966	0.000000	1.062507	2.395209
	4.950000	0.015786	0.000000	103	102.966	0.000000	1.062507	2.395315
	4.966667	0.015998	0.000000	103	102.966	0.000000	1.062507	2.395528
2) DSC 8500 Temperature Scan
	4.983333	0.016222	0.000000	103.004	102.966	0.000000	1.062507	2.395740
	4.984667	0.016267	0.000000	103.02	102.966	0.000000	1.062507	2.395740
	4.986000	0.015051	0.000000	103.041	102.97	0.000000	1.062507	2.394465
	4.987333	0.012348	0.000000	103.062	102.97	0.000000	1.062507	2.391703
	4.988667	0.008476	0.000000	103.083	102.97	0.000000	1.062507	2.387771
	4.990000	0.014701	0.000000	103.104	102.966	0.000000	1.062507	2.382778
	4.991333	0.009484	0.000000	103.12	102.97	0.000000	1.062507	2.377359
	4.992667	0.004983	0.000000	103.141	102.966	0.000000	1.062507	2.371515
	4.994000	0.002273	0.000000	103.162	102.97	0.000000	1.062507	2.366096
	4.995333	0.000915	0.000000	103.183	102.97	0.000000	1.062507	2.360678
	4.996667	0.001103	0.000000	103.204	102.975	0.000000	1.062507	2.355790
	4.998000	0.002645	0.000000	103.22	102.979	0.000000	1.062507	2.351753
	4.999333	0.004853	0.000000	103.241	102.983	0.000000	1.062507	2.348140
	5.000667	0.007561	0.000000	103.262	102.987	0.000000	1.062507	2.345166
	5.002000	0.010470	0.000000	103.283	102.995	0.000000	1.062507	2.342828
	5.003333	0.013629	0.000000	103.304	103.004	0.000000	1.062507	2.341341
	5.004667	0.016313	0.000000	103.32	103.008	0.000000	1.062507	2.340172
	5.006000	0.018727	0.000000	103.341	103.012	0.000000	1.062507	2.339641
	5.007333	0.020576	0.000000	103.362	103.025	0.000000	1.062508	2.339536
	5.008667	0.021743	0.000000	103.383	103.033	0.000000	1.062508	2.339855
	5.010000	0.022046	0.000000	103.4	103.045	0.000000	1.062508	2.340386
	5.011333	0.021812	0.000000	103.42	103.054	0.000000	1.062508	2.341449
	5.012667	0.020267	0.000000	103.441	103.066	0.000000	1.062508	2.342299
	5.014000	0.017975	0.000000	103.462	103.075	0.000000	1.062508	2.343468
	5.015333	0.014754	0.000000	103.483	103.087	0.000000	1.062509	2.344744
	5.016667	0.010559	0.000000	103.5	103.104	0.000000	1.062509	2.346019
	5.018000	0.005590	0.000000	103.52	103.116	0.000000	1.062509	2.347401
	5.019333	-0.000630	0.000000	103.541	103.129	0.000000	1.062509	2.348358
	5.020667	-0.007810	0.000000	103.562	103.141	0.000000	1.062509	2.349102
	5.022000	-0.015510	0.000000	103.583	103.158	0.000000	1.062510	2.349953
	5.023333	-0.024191	0.000000	103.6	103.17	0.000000	1.062510	2.350378
	5.024667	-0.033513	0.000000	103.62	103.187	0.000000	1.062510	2.350591
	5.026000	-0.043387	0.000000	103.641	103.204	0.000000	1.062510	2.350592
	5.027333	-0.053947	0.000000	103.662	103.22	0.000000	1.062511	2.350167
	5.028667	-0.064835	0.000000	103.683	103.237	0.000000	1.062511	2.349530
	5.030000	-0.076072	0.000000	103.7	103.254	0.000000	1.062511	2.348574
	5.031333	-0.087585	0.000000	103.72	103.27	0.000000	1.062511	2.347300
	5.032667	-0.099399	0.000000	103.741	103.287	0.000000	1.062512	2.345600
	5.034000	-0.111070	0.000000	103.762	103.304	0.000000	1.062512	2.343795
	5.035333	-0.122859	0.000000	103.783	103.325	0.000000	1.062512	2.341564
	5.036667	-0.134615	0.000000	103.8	103.341	0.000000	1.062512	2.339015
	5.038000	-0.146058	0.000000	103.82	103.358	0.000000	1.062513	2.336359
	5.039333	-0.157571	0.000000	103.841	103.379	0.000000	1.062513	2.333172
	5.040667	-0.168534	0.000000	103.862	103.395	0.000000	1.062513	2.329985
	5.042000	-0.179382	0.000000	103.879	103.412	0.000000	1.062513	2.326373
	5.043333	-0.189771	0.000000	103.9	103.433	0.000000	1.062514	2.322655
	5.044667	-0.199469	0.000000	103.92	103.445	0.000000	1.062514	2.319043
	5.046000	-0.208988	0.000000	103.941	103.47	0.000000	1.062514	2.315006
	5.047333	-0.217798	0.000000	103.962	103.487	0.000000	1.062515	2.311075
	5.048667	-0.226019	0.000000	103.979	103.504	0.000000	1.062515	2.307145
	5.050000	-0.233953	0.000000	104	103.52	0.000000	1.062515	2.302895
	5.051333	-0.241195	0.000000	104.02	103.541	0.000000	1.062515	2.298752
	5.052667	-0.247687	0.000000	104.041	103.554	0.000000	1.062516	2.294821
	5.054000	-0.253441	0.000000	104.062	103.579	0.000000	1.062516	2.291103
	5.055333	-0.258907	0.000000	104.079	103.6	0.000000	1.062516	2.287172
	5.056667	-0.263573	0.000000	104.1	103.612	0.000000	1.062516	2.283560
	5.058000	-0.267834	0.000000	104.12	103.629	0.000000	1.062517	2.279948
	5.059333	-0.271295	0.000000	104.141	103.654	0.000000	1.062517	2.276762
	5.060667	-0.274315	0.000000	104.162	103.67	0.000000	1.062517	2.273681
	5.062000	-0.276835	0.000000	104.179	103.691	0.000000	1.062518	2.270813
	5.063333	-0.278874	0.000000	104.2	103.712	0.000000	1.062518	2.268157
	5.064667	-0.280267	0.000000	104.22	103.733	0.000000	1.062518	2.265926
	5.066000	-0.281076	0.000000	104.241	103.754	0.000000	1.062519	2.264121
	5.067333	-0.281438	0.000000	104.262	103.77	0.000000	1.062519	2.262634
	5.068667	-0.281490	0.000000	104.279	103.787	0.000000	1.062519	2.261359
	5.070000	-0.281083	0.000000	104.3	103.812	0.000000	1.062519	2.260510
	5.071333	-0.280367	0.000000	104.32	103.833	0.000000	1.062520	2.259980
	5.072667	-0.279373	0.000000	104.341	103.85	0.000000	1.062520	2.259768
	5.074000	-0.277814	0.000000	104.362	103.87	0.000000	1.062520	2.260193
	5.075333	-0.275936	0.000000	104.379	103.887	0.000000	1.062521	2.261044
	5.076667	-0.273792	0.000000	104.4	103.908	0.000000	1.062521	2.262319
	5.078000	-0.271183	0.000000	104.42	103.929	0.000000	1.062521	2.264233
	5.079333	-0.268868	0.000000	104.441	103.95	0.000000	1.062522	2.266040
	5.080667	-0.266059	0.000000	104.458	103.97	0.000000	1.062522	2.268590
	5.082000	-0.263173	0.000000	104.479	103.987	0.000000	1.062522	2.271460
	5.083333	-0.259587	0.000000	104.5	104.004	0.000000	1.062522	2.275285
	5.084667	-0.256488	0.000000	104.52	104.029	0.000000	1.062523	2.278899
	5.086000	-0.252946	0.000000	104.541	104.045	0.000000	1.062523	2.283256
	5.087333	-0.249510	0.000000	104.558	104.066	0.000000	1.062523	2.287825
	5.088667	-0.245852	0.000000	104.579	104.087	0.000000	1.062524	2.292926
	5.090000	-0.242083	0.000000	104.6	104.104	0.000000	1.062524	2.298452
	5.091333	-0.238213	0.000000	104.62	104.125	0.000000	1.062524	2.304402
	5.092667	-0.234589	0.000000	104.641	104.145	0.000000	1.062524	2.310459
	5.094000	-0.230549	0.000000	104.658	104.162	0.000000	1.062525	2.317260
	5.095333	-0.226927	0.000000	104.679	104.183	0.000000	1.062525	2.323955
	5.096667	-0.223106	0.000000	104.7	104.204	0.000000	1.062525	2.331181
	5.098000	-0.219180	0.000000	104.72	104.225	0.000000	1.062526	2.338831
	5.099333	-0.215255	0.000000	104.741	104.245	0.000000	1.062526	2.346801
	5.100667	-0.211677	0.000000	104.758	104.262	0.000000	1.062526	2.354771
	5.102000	-0.207872	0.000000	104.779	104.283	0.000000	1.062527	2.363271
	5.103333	-0.204154	0.000000	104.8	104.304	0.000000	1.062527	2.371985
	5.104667	-0.200619	0.000000	104.82	104.325	0.000000	1.062527	2.380805
	5.106000	-0.196843	0.000000	104.841	104.345	0.000000	1.062527	2.390156
	5.107333	-0.193257	0.000000	104.858	104.362	0.000000	1.062528	2.399613
	5.108667	-0.189949	0.000000	104.879	104.383	0.000000	1.062528	2.409070
	5.110000	-0.186461	0.000000	104.9	104.404	0.000000	1.062528	2.418952
	5.111333	-0.183106	0.000000	104.92	104.425	0.000000	1.062529	2.428941
	5.112667	-0.180004	0.000000	104.937	104.441	0.000000	1.062529	2.438929
	5.114000	-0.176575	0.000000	104.958	104.462	0.000000	1.062529	2.449449
	5.115333	-0.173451	0.000000	104.979	104.479	0.000000	1.062529	2.459862
	5.116667	-0.170307	0.000000	105	104.504	0.000000	1.062530	2.470488
	5.118000	-0.167342	0.000000	105.02	104.52	0.000000	1.062530	2.481114
	5.119333	-0.164439	0.000000	105.037	104.537	0.000000	1.062530	2.491846
	5.120667	-0.161560	0.000000	105.058	104.562	0.000000	1.062531	2.502685
	5.122000	-0.158602	0.000000	105.079	104.579	0.000000	1.062531	2.513736
	5.123333	-0.155977	0.000000	105.1	104.604	0.000000	1.062531	2.524574
	5.124667	-0.153120	0.000000	105.12	104.62	0.000000	1.062532	2.535732
	5.126000	-0.150468	0.000000	105.137	104.645	0.000000	1.062532	2.546783
	5.127333	-0.147685	0.000000	105.158	104.662	0.000000	1.062532	2.558046
	5.128667	-0.145275	0.000000	105.179	104.679	0.000000	1.062532	2.568991
	5.130000	-0.142599	0.000000	105.2	104.695	0.000000	1.062533	2.580254
	5.131333	-0.140178	0.000000	105.22	104.72	0.000000	1.062533	2.591306
	5.132667	-0.137762	0.000000	105.237	104.741	0.000000	1.062533	2.602357
	5.134000	-0.135586	0.000000	105.258	104.758	0.000000	1.062534	2.613195
	5.135333	-0.133123	0.000000	105.279	104.779	0.000000	1.062534	2.624353
	5.136667	-0.130853	0.000000	105.3	104.8	0.000000	1.062534	2.635298
	5.138000	-0.128910	0.000000	105.32	104.82	0.000000	1.062535	2.645924
	5.139333	-0.126873	0.000000	105.337	104.837	0.000000	1.062535	2.656656
	5.140667	-0.124926	0.000000	105.358	104.858	0.000000	1.062535	2.667282
	5.142000	-0.123058	0.000000	105.379	104.875	0.000000	1.062535	2.677802
	5.143333	-0.121259	0.000000	105.4	104.895	0.000000	1.062536	2.688215
	5.144667	-0.119634	0.000000	105.416	104.912	0.000000	1.062536	2.698416
	5.146000	-0.117734	0.000000	105.437	104.937	0.000000	1.062536	2.708830
	5.147333	-0.116309	0.000000	105.458	104.958	0.000000	1.062537	2.718713
	5.148667	-0.114629	0.000000	105.479	104.979	0.000000	1.062537	2.728807
	5.150000	-0.112993	0.000000	105.5	105	0.000000	1.062537	2.738796
	5.151333	-0.111507	0.000000	105.516	105.02	0.000000	1.062538	2.748572
	5.152667	-0.110045	0.000000	105.537	105.037	0.000000	1.062538	2.758242
	5.154000	-0.108494	0.000000	105.558	105.058	0.000000	1.062538	2.767912
	5.155333	-0.107277	0.000000	105.579	105.079	0.000000	1.062538	2.777157
	5.156667	-0.105674	0.000000	105.6	105.095	0.000000	1.062539	2.786720
	5.158000	-0.104513	0.000000	105.616	105.116	0.000000	1.062539	2.795753
	5.159333	-0.103246	0.000000	105.637	105.133	0.000000	1.062539	2.804785
	5.160667	-0.101992	0.000000	105.658	105.154	0.000000	1.062540	2.813711
	5.162000	-0.100950	0.000000	105.679	105.17	0.000000	1.062540	2.822318
	5.163333	-0.099909	0.000000	105.7	105.191	0.000000	1.062540	2.830820
	5.164667	-0.098794	0.000000	105.716	105.212	0.000000	1.062540	2.839321
	5.166000	-0.097769	0.000000	105.737	105.233	0.000000	1.062541	2.847609
	5.167333	-0.096839	0.000000	105.758	105.258	0.000000	1.062541	2.855686
	5.168667	-0.095909	0.000000	105.779	105.275	0.000000	1.062541	2.863655
	5.170000	-0.094871	0.000000	105.8	105.295	0.000000	1.062542	2.871625
	5.171333	-0.094050	0.000000	105.816	105.316	0.000000	1.062542	2.879276
	5.172667	-0.093095	0.000000	105.837	105.337	0.000000	1.062542	2.886928
	5.174000	-0.092241	0.000000	105.858	105.358	0.000000	1.062543	2.894366
	5.175333	-0.091386	0.000000	105.879	105.375	0.000000	1.062543	2.901698
	5.176667	-0.090531	0.000000	105.9	105.395	0.000000	1.062543	2.908925
	5.178000	-0.089996	0.000000	105.916	105.416	0.000000	1.062544	2.915726
	5.179333	-0.089231	0.000000	105.937	105.437	0.000000	1.062544	2.922633
	5.180667	-0.088546	0.000000	105.958	105.454	0.000000	1.062544	2.929328
	5.182000	-0.087862	0.000000	105.979	105.475	0.000000	1.062544	2.935917
	5.183333	-0.087296	0.000000	105.995	105.495	0.000000	1.062545	2.942293
	5.184667	-0.086704	0.000000	106.016	105.512	0.000000	1.062545	2.948562
	5.186000	-0.086012	0.000000	106.037	105.537	0.000000	1.062545	2.954832
	5.187333	-0.085647	0.000000	106.058	105.558	0.000000	1.062546	2.960677
	5.188667	-0.085159	0.000000	106.079	105.575	0.000000	1.062546	2.966522
	5.190000	-0.084569	0.000000	106.095	105.595	0.000000	1.062546	2.972367
	5.191333	-0.084079	0.000000	106.116	105.616	0.000000	1.062547	2.977999
	5.192667	-0.083809	0.000000	106.137	105.637	0.000000	1.062547	2.983313
	5.194000	-0.083212	0.000000	106.158	105.658	0.000000	1.062547	2.988839
	5.195333	-0.082821	0.000000	106.179	105.679	0.000000	1.062548	2.994046
	5.196667	-0.082454	0.000000	106.195	105.7	0.000000	1.062548	2.999147
	5.198000	-0.081983	0.000000	106.216	105.716	0.000000	1.062548	3.004248
	5.199333	-0.081626	0.000000	106.237	105.733	0.000000	1.062548	3.009137
	5.200667	-0.081267	0.000000	106.258	105.754	0.000000	1.062549	3.013919
	5.202000	-0.081017	0.000000	106.279	105.779	0.000000	1.062549	3.018489
	5.203333	-0.080675	0.000000	106.295	105.795	0.000000	1.062549	3.023059
	5.204667	-0.080556	0.000000	106.316	105.816	0.000000	1.062550	3.027310
	5.206000	-0.080229	0.000000	106.337	105.837	0.000000	1.062550	3.031667
	5.207333	-0.079907	0.000000	106.358	105.858	0.000000	1.062550	3.035918
	5.208667	-0.079715	0.000000	106.379	105.875	0.000000	1.062550	3.039957
	5.210000	-0.079554	0.000000	106.395	105.895	0.000000	1.062551	3.043889
	5.211333	-0.079513	0.000000	106.416	105.912	0.000000	1.062551	3.047609
	5.212667	-0.079264	0.000000	106.437	105.933	0.000000	1.062551	3.051435
	5.214000	-0.079248	0.000000	106.458	105.958	0.000000	1.062552	3.054942
	5.215333	-0.079163	0.000000	106.475	105.975	0.000000	1.062552	3.058450
	5.216667	-0.079015	0.000000	106.495	105.995	0.000000	1.062552	3.061957
	5.218000	-0.079085	0.000000	106.516	106.012	0.000000	1.062553	3.065145
	5.219333	-0.078947	0.000000	106.537	106.033	0.000000	1.062553	3.068440
	5.220667	-0.078854	0.000000	106.558	106.054	0.000000	1.062553	3.071629
	5.222000	-0.078580	0.000000	106.575	106.075	0.000000	1.062553	3.074923
	5.223333	-0.078753	0.000000	106.595	106.095	0.000000	1.062554	3.077687
	5.224667	-0.078548	0.000000	106.616	106.116	0.000000	1.062554	3.080769
	5.226000	-0.078593	0.000000	106.637	106.137	0.000000	1.062554	3.083533
	5.227333	-0.078566	0.000000	106.658	106.158	0.000000	1.062555	3.086296
	5.228667	-0.078366	0.000000	106.675	106.175	0.000000	1.062555	3.089166
	5.230000	-0.078513	0.000000	106.695	106.195	0.000000	1.062555	3.091611
	5.231333	-0.078589	0.000000	106.716	106.212	0.000000	1.062556	3.094055
	5.232667	-0.078397	0.000000	106.737	106.233	0.000000	1.062556	3.096713
	5.234000	-0.078473	0.000000	106.758	106.254	0.000000	1.062556	3.099051
	5.235333	-0.078610	0.000000	106.775	106.275	0.000000	1.062556	3.101284
	5.236667	-0.078671	0.000000	106.795	106.291	0.000000	1.062557	3.103516
	5.238000	-0.078570	0.000000	106.816	106.308	0.000000	1.062557	3.105854
	5.239333	-0.078630	0.000000	106.837	106.329	0.000000	1.062557	3.107980
	5.240667	-0.078732	0.000000	106.858	106.35	0.000000	1.062558	3.110000
	5.242000	-0.078674	0.000000	106.875	106.37	0.000000	1.062558	3.112126
	5.243333	-0.078873	0.000000	106.895	106.391	0.000000	1.062558	3.113933
	5.244667	-0.078593	0.000000	106.916	106.412	0.000000	1.062559	3.116165
	5.246000	-0.078581	0.000000	106.937	106.433	0.000000	1.062559	3.118079
	5.247333	-0.078634	0.000000	106.954	106.454	0.000000	1.062559	3.119886
	5.248667	-0.078428	0.000000	106.975	106.47	0.000000	1.062559	3.121906
	5.250000	-0.078290	0.000000	106.995	106.487	0.000000	1.062560	3.123819
	5.251333	-0.078107	0.000000	107.016	106.508	0.000000	1.062560	3.125733
	5.252667	-0.078180	0.000000	107.037	106.529	0.000000	1.062560	3.127327
	5.254000	-0.077694	0.000000	107.054	106.55	0.000000	1.062561	3.129453
	5.255333	-0.077700	0.000000	107.075	106.57	0.000000	1.062561	3.131048
	5.256667	-0.077429	0.000000	107.095	106.591	0.000000	1.062561	3.132855
	5.258000	-0.077225	0.000000	107.116	106.612	0.000000	1.062562	3.134557
	5.259333	-0.077092	0.000000	107.137	106.629	0.000000	1.062562	3.136151
	5.260667	-0.076819	0.000000	107.154	106.65	0.000000	1.062562	3.137852
	5.262000	-0.076605	0.000000	107.175	106.67	0.000000	1.062562	3.139447
	5.263333	-0.076354	0.000000	107.195	106.691	0.000000	1.062563	3.141042
	5.264667	-0.076179	0.000000	107.216	106.712	0.000000	1.062563	3.142530
	5.266000	-0.075968	0.000000	107.237	106.733	0.000000	1.062563	3.144019
	5.267333	-0.076045	0.000000	107.254	106.75	0.000000	1.062564	3.145188
	5.268667	-0.075862	0.000000	107.275	106.77	0.000000	1.062564	3.146570
	5.270000	-0.075750	0.000000	107.295	106.791	0.000000	1.062564	3.147846
	5.271333	-0.075604	0.000000	107.316	106.812	0.000000	1.062565	3.149123
	5.272667	-0.075318	0.000000	107.337	106.829	0.000000	1.062565	3.150505
	5.274000	-0.075347	0.000000	107.354	106.85	0.000000	1.062565	3.151568
	5.275333	-0.075248	0.000000	107.375	106.875	0.000000	1.062565	3.152738
	5.276667	-0.075178	0.000000	107.395	106.891	0.000000	1.062566	3.153801
	5.278000	-0.075300	0.000000	107.416	106.912	0.000000	1.062566	3.154652
	5.279333	-0.075517	0.000000	107.437	106.933	0.000000	1.062566	3.155397
	5.280667	-0.075386	0.000000	107.454	106.954	0.000000	1.062567	3.156461
	5.282000	-0.075558	0.000000	107.475	106.97	0.000000	1.062567	3.157205
	5.283333	-0.075616	0.000000	107.495	106.991	0.000000	1.062567	3.158056
	5.284667	-0.075638	0.000000	107.516	107.012	0.000000	1.062568	3.158907
	5.286000	-0.075833	0.000000	107.533	107.033	0.000000	1.062568	3.159546
	5.287333	-0.075879	0.000000	107.554	107.054	0.000000	1.062568	3.160290
	5.288667	-0.075936	0.000000	107.575	107.07	0.000000	1.062568	3.161035
	5.290000	-0.075864	0.000000	107.595	107.095	0.000000	1.062569	3.161886
	5.291333	-0.076396	0.000000	107.616	107.112	0.000000	1.062569	3.162099
	5.292667	-0.076363	0.000000	107.633	107.133	0.000000	1.062569	3.162844
	5.294000	-0.076535	0.000000	107.654	107.15	0.000000	1.062570	3.163376
	5.295333	-0.076916	0.000000	107.675	107.175	0.000000	1.062570	3.163696
	5.296667	-0.076927	0.000000	107.695	107.191	0.000000	1.062570	3.164334
	5.298000	-0.077347	0.000000	107.716	107.212	0.000000	1.062571	3.164548
	5.299333	-0.077553	0.000000	107.733	107.233	0.000000	1.062571	3.164974
	5.300667	-0.077845	0.000000	107.754	107.254	0.000000	1.062571	3.165293
	5.302000	-0.078125	0.000000	107.775	107.275	0.000000	1.062571	3.165613
	5.303333	-0.078395	0.000000	107.795	107.291	0.000000	1.062572	3.165932
	5.304667	-0.078751	0.000000	107.816	107.312	0.000000	1.062572	3.166146
	5.306000	-0.078974	0.000000	107.833	107.333	0.000000	1.062572	3.166466
	5.307333	-0.079164	0.000000	107.854	107.354	0.000000	1.062573	3.166785
	5.308667	-0.079474	0.000000	107.875	107.375	0.000000	1.062573	3.166999
[...]
	57.8933	-0.708749	0.000000	303	302.954	0.000000	1.065513	0.832485
	57.8983	-0.708749	0.000000	303	302.958	0.000000	1.065513	0.832485
	57.9033	-0.708536	0.000000	303	302.954	0.000000	1.065513	0.832698
	57.9083	-0.708110	0.000000	303	302.954	0.000000	1.065513	0.833124
	57.9133	-0.707790	0.000000	303	302.958	0.000000	1.065513	0.833444
	57.9183	-0.707790	0.000000	303	302.958	0.000000	1.065513	0.833444
	57.9233	-0.707790	0.000000	303	302.954	0.000000	1.065513	0.833444
	57.9283	-0.707470	0.000000	303	302.954	0.000000	1.065513	0.833764
	57.9333	-0.707577	0.000000	303	302.958	0.000000	1.065513	0.833657
	57.9383	-0.707577	0.000000	303	302.958	0.000000	1.065513	0.833657
	57.9433	-0.707470	0.000000	303	302.958	0.000000	1.065513	0.833764
	57.9483	-0.707257	0.000000	303	302.954	0.000000	1.065513	0.833977
	57.9533	-0.707364	0.000000	303	302.958	0.000000	1.065513	0.833870
	57.9583	-0.707470	0.000000	303	302.954	0.000000	1.065513	0.833764
	57.9633	-0.707577	0.000000	303	302.958	0.000000	1.065513	0.833657
	57.9683	-0.707577	0.000000	303	302.954	0.000000	1.065513	0.833657
	57.9733	-0.707683	0.000000	303	302.958	0.000000	1.065513	0.833551
	57.9783	-0.707790	0.000000	303	302.958	0.000000	1.065513	0.833444
	57.9833	-0.707896	0.000000	303	302.954	0.000000	1.065513	0.833338
	57.9883	-0.707683	0.000000	303	302.958	0.000000	1.065513	0.833551
	57.9933	-0.707577	0.000000	303	302.954	0.000000	1.065513	0.833657
	57.9983	-0.707577	0.000000	303	302.958	0.000000	1.065513	0.833657
	58.0033	-0.707470	0.000000	303	302.954	0.000000	1.065513	0.833764
	58.0083	-0.707577	0.000000	303	302.958	0.000000	1.065513	0.833657
	58.0133	-0.707257	0.000000	303	302.954	0.000000	1.065513	0.833977
	58.0183	-0.706298	0.000000	303	302.958	0.000000	1.065513	0.834936
	58.0233	-0.705659	0.000000	303	302.958	0.000000	1.065513	0.835575
	58.0283	-0.704913	0.000000	303	302.954	0.000000	1.065513	0.836321
	58.0333	-0.704274	0.000000	303	302.954	0.000000	1.065513	0.836960
	58.0383	-0.704061	0.000000	303	302.954	0.000000	1.065513	0.837173
	58.0433	-0.703528	0.000000	303	302.954	0.000000	1.065513	0.837706
	58.0483	-0.703315	0.000000	303	302.95	0.000000	1.065513	0.837919
	58.0533	-0.703528	0.000000	303	302.954	0.000000	1.065513	0.837706
	58.0583	-0.703528	0.000000	303	302.954	0.000000	1.065513	0.837706
	58.0633	-0.703528	0.000000	303	302.958	0.000000	1.065513	0.837706
	58.0683	-0.703421	0.000000	303	302.954	0.000000	1.065513	0.837813
	58.0733	-0.703208	0.000000	303	302.958	0.000000	1.065513	0.838026
	58.0783	-0.703421	0.000000	303	302.954	0.000000	1.065513	0.837813
	58.0833	-0.703208	0.000000	303	302.954	0.000000	1.065513	0.838026
	58.0883	-0.702888	0.000000	303	302.958	0.000000	1.065513	0.838345
	58.0933	-0.702675	0.000000	303	302.958	0.000000	1.065513	0.838559
	58.0983	-0.702995	0.000000	303	302.954	0.000000	1.065513	0.838239
	58.1033	-0.702995	0.000000	303	302.954	0.000000	1.065513	0.838239
	58.1083	-0.702782	0.000000	303	302.958	0.000000	1.065513	0.838452
	58.1133	-0.702569	0.000000	303	302.958	0.000000	1.065513	0.838665
	58.1183	-0.702462	0.000000	303	302.954	0.000000	1.065513	0.838772
	58.1233	-0.702462	0.000000	303	302.958	0.000000	1.065513	0.838772
	58.1283	-0.702462	0.000000	303	302.958	0.000000	1.065513	0.838772
	58.1333	-0.702462	0.000000	303	302.958	0.000000	1.065513	0.838772
	58.1383	-0.702356	0.000000	303	302.958	0.000000	1.065513	0.838878
	58.1433	-0.702249	0.000000	303	302.958	0.000000	1.065513	0.838985
	58.1483	-0.702143	0.000000	303	302.954	0.000000	1.065513	0.839091
	58.1533	-0.702249	0.000000	303	302.954	0.000000	1.065513	0.838985
	58.1583	-0.701823	0.000000	303	302.958	0.000000	1.065513	0.839411
	58.1633	-0.701610	0.000000	303	302.958	0.000000	1.065513	0.839624
	58.1683	-0.701397	0.000000	303	302.958	0.000000	1.065513	0.839837
	58.1733	-0.701290	0.000000	303	302.958	0.000000	1.065513	0.839944
	58.1783	-0.701290	0.000000	303	302.954	0.000000	1.065513	0.839944
	58.1833	-0.701077	0.000000	303	302.954	0.000000	1.065513	0.840157
	58.1883	-0.700971	0.000000	303	302.958	0.000000	1.065513	0.840263
	58.1933	-0.700971	0.000000	303	302.958	0.000000	1.065513	0.840263
	58.1983	-0.700864	0.000000	303	302.958	0.000000	1.065513	0.840370
	58.2033	-0.700544	0.000000	303	302.958	0.000000	1.065513	0.840690
	58.2083	-0.700544	0.000000	303	302.954	0.000000	1.065513	0.840690
	58.2133	-0.700331	0.000000	303	302.954	0.000000	1.065513	0.840903
	58.2183	-0.700118	0.000000	303	302.954	0.000000	1.065513	0.841116
	58.2233	-0.699905	0.000000	303	302.958	0.000000	1.065513	0.841329
	58.2283	-0.699692	0.000000	303	302.954	0.000000	1.065513	0.841542
	58.2333	-0.699692	0.000000	303	302.958	0.000000	1.065513	0.841542
	58.2383	-0.699799	0.000000	303	302.954	0.000000	1.065513	0.841435
	58.2433	-0.699479	0.000000	303	302.954	0.000000	1.065513	0.841755
	58.2483	-0.699798	0.000000	303	302.958	0.000000	1.065513	0.841435
	58.2533	-0.700012	0.000000	303	302.958	0.000000	1.065513	0.841222
	58.2583	-0.700012	0.000000	303	302.954	0.000000	1.065513	0.841222
	58.2633	-0.699905	0.000000	303	302.958	0.000000	1.065513	0.841329
	58.2683	-0.699585	0.000000	303	302.958	0.000000	1.065513	0.841649
	58.2733	-0.699479	0.000000	303	302.958	0.000000	1.065513	0.841755
	58.2783	-0.699266	0.000000	303	302.958	0.000000	1.065513	0.841968
	58.2833	-0.699372	0.000000	303	302.958	0.000000	1.065513	0.841862
	58.2883	-0.699266	0.000000	303	302.954	0.000000	1.065513	0.841968
	58.2933	-0.699266	0.000000	303	302.954	0.000000	1.065513	0.841968
	58.2983	-0.699266	0.000000	303	302.958	0.000000	1.065513	0.841968
	58.3033	-0.699372	0.000000	303	302.958	0.000000	1.065513	0.841862
	58.3083	-0.699479	0.000000	303	302.954	0.000000	1.065513	0.841755
	58.3133	-0.699692	0.000000	303	302.954	0.000000	1.065513	0.841542
	58.3183	-0.699372	0.000000	303	302.958	0.000000	1.065513	0.841862
	58.3233	-0.699372	0.000000	303	302.958	0.000000	1.065513	0.841862
	58.3283	-0.699479	0.000000	303	302.954	0.000000	1.065513	0.841755
	58.3333	-0.699585	0.000000	303	302.958	0.000000	1.065513	0.841649
	58.3383	-0.699585	0.000000	303	302.958	0.000000	1.065513	0.841649
	58.3433	-0.699692	0.000000	303	302.958	0.000000	1.065513	0.841542
	58.3483	-0.699692	0.000000	303	302.958	0.000000	1.065513	0.841542
	58.3533	-0.699585	0.000000	303	302.958	0.000000	1.065513	0.841649
	58.3583	-0.699585	0.000000	303	302.958	0.000000	1.065513	0.841649
	58.3633	-0.699692	0.000000	303	302.958	0.000000	1.065513	0.841542
	58.3683	-0.699798	0.000000	303	302.958	0.000000	1.065513	0.841435
	58.3733	-0.699692	0.000000	303	302.954	0.000000	1.065513	0.841542
	58.3783	-0.699479	0.000000	303	302.958	0.000000	1.065513	0.841755
	58.3833	-0.699585	0.000000	303	302.958	0.000000	1.065513	0.841649
	58.3883	-0.699372	0.000000	303	302.954	0.000000	1.065513	0.841862
	58.3933	-0.699585	0.000000	303	302.958	0.000000	1.065513	0.841649
	58.3983	-0.699585	0.000000	303	302.958	0.000000	1.065513	0.841649
	58.4033	-0.699585	0.000000	303	302.954	0.000000	1.065513	0.841649
	58.4083	-0.699798	0.000000	303	302.958	0.000000	1.065513	0.841435
	58.4133	-0.699905	0.000000	303	302.958	0.000000	1.065513	0.841329
	58.4183	-0.699798	0.000000	303	302.958	0.000000	1.065513	0.841435
	58.4233	-0.700012	0.000000	303	302.954	0.000000	1.065513	0.841222
	58.4283	-0.700118	0.000000	303	302.958	0.000000	1.065513	0.841116
	58.4333	-0.700012	0.000000	303	302.954	0.000000	1.065513	0.841222
	58.4383	-0.699798	0.000000	303	302.958	0.000000	1.065513	0.841435
	58.4433	-0.700012	0.000000	303	302.958	0.000000	1.065513	0.841222
	58.4483	-0.700225	0.000000	303	302.958	0.000000	1.065513	0.841009
	58.4533	-0.700225	0.000000	303	302.958	0.000000	1.065513	0.841009
	58.4583	-0.700544	0.000000	303	302.958	0.000000	1.065513	0.840690
	58.4633	-0.700438	0.000000	303	302.958	0.000000	1.065513	0.840796
	58.4683	-0.700438	0.000000	303	302.958	0.000000	1.065513	0.840796
	58.4733	-0.700544	0.000000	303	302.958	0.000000	1.065513	0.840690
	58.4783	-0.700651	0.000000	303	302.958	0.000000	1.065513	0.840583
	58.4833	-0.700651	0.000000	303	302.954	0.000000	1.065513	0.840583
	58.4883	-0.700757	0.000000	303	302.958	0.000000	1.065513	0.840477
	58.4933	-0.700757	0.000000	303	302.958	0.000000	1.065513	0.840477
	58.4983	-0.700864	0.000000	303	302.958	0.000000	1.065513	0.840370
	58.5033	-0.700971	0.000000	303	302.954	0.000000	1.065513	0.840263
	58.5083	-0.700864	0.000000	303	302.958	0.000000	1.065513	0.840370
	58.5133	-0.701077	0.000000	303	302.958	0.000000	1.065513	0.840157
	58.5183	-0.701290	0.000000	303	302.958	0.000000	1.065513	0.839944
	58.5233	-0.701290	0.000000	303	302.954	0.000000	1.065513	0.839944
	58.5283	-0.701503	0.000000	303	302.954	0.000000	1.065513	0.839731
	58.5333	-0.701610	0.000000	303	302.958	0.000000	1.065513	0.839624
	58.5383	-0.701716	0.000000	303	302.954	0.000000	1.065513	0.839518
	58.5433	-0.701716	0.000000	303	302.954	0.000000	1.065513	0.839518
	58.5483	-0.701716	0.000000	303	302.958	0.000000	1.065513	0.839518
	58.5533	-0.701610	0.000000	303	302.958	0.000000	1.065513	0.839624
	58.5583	-0.701716	0.000000	303	302.958	0.000000	1.065513	0.839518
	58.5633	-0.702143	0.000000	303	302.958	0.000000	1.065513	0.839091
	58.5683	-0.702249	0.000000	303	302.958	0.000000	1.065513	0.838985
	58.5733	-0.702356	0.000000	303	302.958	0.000000	1.065513	0.838878
	58.5783	-0.702036	0.000000	303	302.954	0.000000	1.065513	0.839198
	58.5833	-0.701930	0.000000	303	302.954	0.000000	1.065513	0.839304
	58.5883	-0.702036	0.000000	303	302.958	0.000000	1.065513	0.839198
	58.5933	-0.701929	0.000000	303	302.962	0.000000	1.065513	0.839305
	58.5983	-0.701930	0.000000	303	302.954	0.000000	1.065513	0.839304
	58.6033	-0.702356	0.000000	303	302.954	0.000000	1.065513	0.838878
	58.6083	-0.702569	0.000000	303	302.958	0.000000	1.065513	0.838665
	58.6133	-0.702569	0.000000	303	302.954	0.000000	1.065513	0.838665
	58.6183	-0.702782	0.000000	303	302.958	0.000000	1.065513	0.838452
	58.6233	-0.702995	0.000000	303	302.958	0.000000	1.065513	0.838239
	58.6283	-0.702995	0.000000	303	302.958	0.000000	1.065513	0.838239
	58.6333	-0.703208	0.000000	303	302.958	0.000000	1.065513	0.838026
	58.6383	-0.703421	0.000000	303	302.958	0.000000	1.065513	0.837813
	58.6433	-0.703741	0.000000	303	302.954	0.000000	1.065513	0.837493
	58.6483	-0.703847	0.000000	303	302.958	0.000000	1.065513	0.837387
	58.6533	-0.703954	0.000000	303	302.958	0.000000	1.065513	0.837280
	58.6583	-0.704167	0.000000	303	302.958	0.000000	1.065513	0.837067
	58.6633	-0.704380	0.000000	303	302.954	0.000000	1.065513	0.836854
	58.6683	-0.704380	0.000000	303	302.958	0.000000	1.065513	0.836854
	58.6733	-0.704593	0.000000	303	302.958	0.000000	1.065513	0.836641
	58.6783	-0.704487	0.000000	303	302.958	0.000000	1.065513	0.836747
	58.6833	-0.704487	0.000000	303	302.958	0.000000	1.065513	0.836747
	58.6883	-0.704593	0.000000	303	302.958	0.000000	1.065513	0.836641
	58.6933	-0.704487	0.000000	303	302.954	0.000000	1.065513	0.836747
	58.6983	-0.704380	0.000000	303	302.954	0.000000	1.065513	0.836854
	58.7033	-0.704700	0.000000	303	302.954	0.000000	1.065513	0.836534
	58.7083	-0.704806	0.000000	303	302.954	0.000000	1.065513	0.836428
	58.7133	-0.704806	0.000000	303	302.958	0.000000	1.065513	0.836428
	58.7183	-0.704806	0.000000	303	302.958	0.000000	1.065513	0.836428
	58.7233	-0.705126	0.000000	303	302.958	0.000000	1.065513	0.836108
	58.7283	-0.705233	0.000000	303	302.954	0.000000	1.065513	0.836001
	58.7333	-0.705126	0.000000	303	302.954	0.000000	1.065513	0.836108
	58.7383	-0.705233	0.000000	303	302.954	0.000000	1.065513	0.836001
	58.7433	-0.705339	0.000000	303	302.958	0.000000	1.065513	0.835895
	58.7483	-0.705552	0.000000	303	302.958	0.000000	1.065513	0.835682
	58.7533	-0.705446	0.000000	303	302.958	0.000000	1.065513	0.835788
	58.7583	-0.705659	0.000000	303	302.954	0.000000	1.065513	0.835575
	58.7633	-0.705552	0.000000	303	302.958	0.000000	1.065513	0.835682
	58.7683	-0.705765	0.000000	303	302.958	0.000000	1.065513	0.835469
	58.7733	-0.705339	0.000000	303	302.958	0.000000	1.065513	0.835895
	58.7783	-0.705552	0.000000	303	302.958	0.000000	1.065513	0.835682
	58.7833	-0.705446	0.000000	303	302.958	0.000000	1.065513	0.835788
	58.7883	-0.705552	0.000000	303	302.958	0.000000	1.065513	0.835682
	58.7933	-0.705765	0.000000	303	302.958	0.000000	1.065513	0.835469
	58.7983	-0.705659	0.000000	303	302.954	0.000000	1.065513	0.835575
	58.8033	-0.705872	0.000000	303	302.954	0.000000	1.065513	0.835362
	58.8083	-0.705872	0.000000	303	302.958	0.000000	1.065513	0.835362
	58.8133	-0.706085	0.000000	303	302.954	0.000000	1.065513	0.835149
	58.8183	-0.706085	0.000000	303	302.958	0.000000	1.065513	0.835149
	58.8233	-0.705978	0.000000	303	302.958	0.000000	1.065513	0.835256
	58.8283	-0.706511	0.000000	303	302.954	0.000000	1.065513	0.834723
	58.8333	-0.706724	0.000000	303	302.954	0.000000	1.065513	0.834510
	58.8383	-0.706724	0.000000	303	302.954	0.000000	1.065513	0.834510
	58.8433	-0.706831	0.000000	303	302.958	0.000000	1.065513	0.834403
	58.8483	-0.706937	0.000000	303	302.954	0.000000	1.065513	0.834296
	58.8533	-0.706831	0.000000	303	302.954	0.000000	1.065513	0.834403
	58.8583	-0.706724	0.000000	303	302.958	0.000000	1.065513	0.834510
	58.8633	-0.706724	0.000000	303	302.958	0.000000	1.065513	0.834510
	58.8683	-0.706831	0.000000	303	302.958	0.000000	1.065513	0.834403
	58.8733	-0.707044	0.000000	303	302.958	0.000000	1.065513	0.834190
	58.8783	-0.707044	0.000000	303	302.954	0.000000	1.065513	0.834190
	58.8833	-0.706937	0.000000	303	302.958	0.000000	1.065513	0.834297
	58.8883	-0.707044	0.000000	303	302.954	0.000000	1.065513	0.834190
	58.8933	-0.707044	0.000000	303	302.958	0.000000	1.065513	0.834190
	58.8983	-0.707364	0.000000	303	302.958	0.000000	1.065513	0.833870
	58.9033	-0.707470	0.000000	303	302.958	0.000000	1.065513	0.833764
	58.9083	-0.707683	0.000000	303	302.958	0.000000	1.065513	0.833551
	58.9133	-0.707683	0.000000	303	302.958	0.000000	1.065513	0.833551
	58.9183	-0.707896	0.000000	303	302.958	0.000000	1.065513	0.833338
	58.9233	-0.708003	0.000000	303	302.958	0.000000	1.065513	0.833231
	58.9283	-0.708003	0.000000	303	302.958	0.000000	1.065513	0.833231
	58.9333	-0.708003	0.000000	303	302.958	0.000000	1.065513	0.833231
	58.9383	-0.708109	0.000000	303	302.958	0.000000	1.065513	0.833124
	58.9433	-0.707896	0.000000	303	302.958	0.000000	1.065513	0.833338
	58.9483	-0.707790	0.000000	303	302.958	0.000000	1.065513	0.833444
	58.9533	-0.708109	0.000000	303	302.958	0.000000	1.065513	0.833124
	58.9583	-0.708216	0.000000	303	302.962	0.000000	1.065513	0.833018
	58.9633	-0.708003	0.000000	303	302.958	0.000000	1.065513	0.833231
	58.9683	-0.708109	0.000000	303	302.958	0.000000	1.065513	0.833124
	58.9733	-0.708109	0.000000	303	302.958	0.000000	1.065513	0.833124
	58.9783	-0.708216	0.000000	303	302.958	0.000000	1.065513	0.833018
	58.9833	-0.707683	0.000000	303	302.958	0.000000	1.065513	0.833551
	58.9883	-0.707683	0.000000	303	302.958	0.000000	1.065513	0.833551
	58.9933	-0.707683	0.000000	303	302.954	0.000000	1.065513	0.833551
	58.9983	-0.707790	0.000000	303	302.958	0.000000	1.065513	0.833444
	59.0033	-0.708109	0.000000	303	302.958	0.000000	1.065513	0.833124
	59.0083	-0.708109	0.000000	303	302.958	0.000000	1.065513	0.833124
	59.0133	-0.708216	0.000000	303	302.958	0.000000	1.065513	0.833018
	59.0183	-0.708323	0.000000	303	302.958	0.000000	1.065513	0.832911
	59.0233	-0.708642	0.000000	303	302.958	0.000000	1.065513	0.832592
	59.0283	-0.708642	0.000000	303	302.954	0.000000	1.065513	0.832592
	59.0333	-0.708749	0.000000	303	302.958	0.000000	1.065513	0.832485
	59.0383	-0.708855	0.000000	303	302.958	0.000000	1.065513	0.832379
	59.0433	-0.708962	0.000000	303	302.958	0.000000	1.065513	0.832272
	59.0483	-0.709175	0.000000	303	302.958	0.000000	1.065513	0.832059
	59.0533	-0.709388	0.000000	303	302.958	0.000000	1.065513	0.831846
	59.0583	-0.709601	0.000000	303	302.958	0.000000	1.065513	0.831633
	59.0633	-0.709601	0.000000	303	302.962	0.000000	1.065513	0.831633
	59.0683	-0.709495	0.000000	303	302.958	0.000000	1.065513	0.831739
	59.0733	-0.709601	0.000000	303	302.954	0.000000	1.065513	0.831633
	59.0783	-0.709601	0.000000	303	302.958	0.000000	1.065513	0.831633
	59.0833	-0.709708	0.000000	303	302.958	0.000000	1.065513	0.831526
	59.0883	-0.709814	0.000000	303	302.958	0.000000	1.065513	0.831420
	59.0933	-0.710134	0.000000	303	302.958	0.000000	1.065513	0.831100
	59.0983	-0.710027	0.000000	303	302.958	0.000000	1.065513	0.831207
	59.1033	-0.709708	0.000000	303	302.958	0.000000	1.065513	0.831526
	59.1083	-0.709708	0.000000	303	302.958	0.000000	1.065513	0.831526
	59.1133	-0.709495	0.000000	303	302.954	0.000000	1.065513	0.831739
	59.1183	-0.709495	0.000000	303	302.954	0.000000	1.065513	0.831739
	59.1233	-0.709814	0.000000	303	302.962	0.000000	1.065513	0.831420
	59.1283	-0.709921	0.000000	303	302.958	0.000000	1.065513	0.831313
	59.1333	-0.709921	0.000000	303	302.958	0.000000	1.065513	0.831313
	59.1383	-0.709814	0.000000	303	302.958	0.000000	1.065513	0.831420
	59.1433	-0.709814	0.000000	303	302.958	0.000000	1.065513	0.831420
	59.1483	-0.710027	0.000000	303	302.958	0.000000	1.065513	0.831207
	59.1533	-0.710347	0.000000	303	302.958	0.000000	1.065513	0.830887
	59.1583	-0.710240	0.000000	303	302.958	0.000000	1.065513	0.830993
	59.1633	-0.710454	0.000000	303	302.958	0.000000	1.065513	0.830780
	59.1683	-0.710667	0.000000	303	302.958	0.000000	1.065513	0.830567
	59.1733	-0.710454	0.000000	303	302.958	0.000000	1.065513	0.830780
	59.1783	-0.710560	0.000000	303	302.958	0.000000	1.065513	0.830674
	59.1833	-0.710454	0.000000	303	302.958	0.000000	1.065513	0.830780
	59.1883	-0.710454	0.000000	303	302.958	0.000000	1.065513	0.830780
	59.1933	-0.710454	0.000000	303	302.958	0.000000	1.065513	0.830780
	59.1983	-0.710560	0.000000	303	302.958	0.000000	1.065513	0.830674
	59.2033	-0.710667	0.000000	303	302.958	0.000000	1.065513	0.830567
	59.2083	-0.710773	0.000000	303	302.954	0.000000	1.065513	0.830461
	59.2133	-0.710773	0.000000	303	302.954	0.000000	1.065513	0.830461
	59.2183	-0.710560	0.000000	303	302.954	0.000000	1.065513	0.830674
	59.2233	-0.710880	0.000000	303	302.958	0.000000	1.065513	0.830354
	59.2283	-0.710986	0.000000	303	302.958	0.000000	1.065513	0.830248
	59.2333	-0.710773	0.000000	303	302.958	0.000000	1.065513	0.830461
	59.2383	-0.710773	0.000000	303	302.954	0.000000	1.065513	0.830461
	59.2433	-0.711093	0.000000	303	302.958	0.000000	1.065513	0.830141
	59.2483	-0.710986	0.000000	303	302.958	0.000000	1.065513	0.830248
	59.2533	-0.710773	0.000000	303	302.958	0.000000	1.065513	0.830461
	59.2583	-0.710667	0.000000	303	302.958	0.000000	1.065513	0.830567
	59.2633	-0.710773	0.000000	303	302.954	0.000000	1.065513	0.830461
	59.2683	-0.710773	0.000000	303	302.958	0.000000	1.065513	0.830461
	59.2733	-0.710880	0.000000	303	302.954	0.000000	1.065513	0.830354
	59.2783	-0.710986	0.000000	303	302.958	0.000000	1.065513	0.830248
	59.2833	-0.711093	0.000000	303	302.958	0.000000	1.065513	0.830141
	59.2883	-0.711306	0.000000	303	302.958	0.000000	1.065513	0.829928
	59.2933	-0.711519	0.000000	303	302.958	0.000000	1.065513	0.829715
	59.2983	-0.711626	0.000000	303	302.958	0.000000	1.065513	0.829608
	59.3033	-0.711626	0.000000	303	302.954	0.000000	1.065513	0.829608
	59.3083	-0.711306	0.000000	303	302.958	0.000000	1.065513	0.829928
	59.3133	-0.711413	0.000000	303	302.958	0.000000	1.065513	0.829821
	59.3183	-0.711306	0.000000	303	302.958	0.000000	1.065513	0.829928
	59.3233	-0.711306	0.000000	303	302.958	0.000000	1.065513	0.829928
	59.3283	-0.711519	0.000000	303	302.958	0.000000	1.065513	0.829715
	59.3333	-0.711626	0.000000	303	302.958	0.000000	1.065513	0.829608
	59.3383	-0.711519	0.000000	303	302.958	0.000000	1.065513	0.829715
	59.3433	-0.711413	0.000000	303	302.958	0.000000	1.065513	0.829821
	59.3483	-0.711306	0.000000	303	302.958	0.000000	1.065513	0.829928
	59.3533	-0.711306	0.000000	303	302.958	0.000000	1.065513	0.829928
	59.3583	-0.711199	0.000000	303	302.958	0.000000	1.065513	0.830034
	59.3633	-0.710880	0.000000	303	302.958	0.000000	1.065513	0.830354
	59.3683	-0.710773	0.000000	303	302.958	0.000000	1.065513	0.830461
	59.3733	-0.710454	0.000000	303	302.958	0.000000	1.065513	0.830780
	59.3767	-0.710347	0.000000	303	302.958	0.000000	1.065513	0.830887