File: demo_data/Pt60_100-300-4.txt
Filename:	C:\Program Files (x86)\PerkinElmer\Pyris\data\Pt60_100-300-4.ds8d
Operator ID:
Sample ID:	Pt60
Comment:
Serial Number:
Data Collected:	7/15/2024 2:44:43 PM
Sample Weight:	16.600 mg
Display Weight:	16.600
Validation
Validated:	No
By:
Date:
Calibration Information
Filename:	C:\Program Files (x86)\PerkinElmer\Pyris\Calibrations\Calib100to400_07102024-1.ds8c
Date/Time:	7/11/2024 12:54:01 PM
Initial Conditions
Temperature:	 100.00 °C
Purge Gas:
Purge Gas Rate:
Baseline Filename:
End Condition:	Go To Load
Total Points in Run:	46150
Method Steps:
Pre-Run Actions
Switch the Gas to Nitrogen at 20.0 ml/min
	Action occurs Immediately
Start the Run
	Action occurs Immediately
1)	Hold for 5.0 min at 100.00°C

2)	Heat from 100.00°C to 110.00°C at 15.00°C/min

3)	Hold for 2.0 min at 110.00°C

4)	Heat from 110.00°C to 120.00°C at 15.00°C/min

5)	Hold for 2.0 min at 120.00°C

6)	Heat from 120.00°C to 130.00°C at 15.00°C/min

7)	Hold for 2.0 min at 130.00°C

8)	Heat from 130.00°C to 140.00°C at 15.00°C/min

9)	Hold for 2.0 min at 140.00°C

10)	Heat from 140.00°C to 150.00°C at 15.00°C/min

11)	Hold for 2.0 min at 150.00°C

12)	Heat from 150.00°C to 160.00°C at 15.00°C/min

13)	Hold for 2.0 min at 160.00°C

14)	Heat from 160.00°C to 170.00°C at 15.00°C/min

15)	Hold for 2.0 min at 170.00°C

16)	Heat from 170.00°C to 180.00°C at 15.00°C/min

17)	Hold for 2.0 min at 180.00°C

18)	Heat from 180.00°C to 190.00°C at 15.00°C/min

19)	Hold for 2.0 min at 190.00°C

20)	Heat from 190.00°C to 200.00°C at 15.00°C/min

21)	Hold for 2.0 min at 200.00°C

22)	Heat from 200.00°C to 210.00°C at 15.00°C/min

23)	Hold for 2.0 min at 210.00°C

24)	Heat from 210.00°C to 220.00°C at 15.00°C/min

25)	Hold for 2.0 min at 220.00°C

26)	Heat from 220.00°C to 230.00°C at 15.00°C/min

27)	Hold for 2.0 min at 230.00°C

28)	Heat from 230.00°C to 240.00°C at 15.00°C/min

29)	Hold for 2.0 min at 240.00°C

30)	Heat from 240.00°C to 250.00°C at 15.00°C/min

31)	Hold for 2.0 min at 250.00°C

32)	Heat from 250.00°C to 260.00°C at 15.00°C/min

33)	Hold for 2.0 min at 260.00°C

34)	Heat from 260.00°C to 270.00°C at 15.00°C/min

35)	Hold for 2.0 min at 270.00°C

36)	Heat from 270.00°C to 280.00°C at 15.00°C/min

37)	Hold for 2.0 min at 280.00°C

38)	Heat from 280.00°C to 290.00°C at 15.00°C/min

39)	Hold for 2.0 min at 290.00°C

40)	Heat from 290.00°C to 300.00°C at 15.00°C/min

41)	Hold for 5.0 min at 300.00°C

1) DSC 8500 Isothermal
	Time     	Unsubtracted	Baseline     	Program     	Sample     	Approx.     	Heat Flow     	Uncorrected
	          	Heat Flow     	Heat Flow     	Temperature	Temperature	Gas Flow     	Calibration	Heat Flow
	0.000000	20.7557	0.000000	100	97.808	0.000000	1.062429	22.6794
	0.016667	23.1543	0.000000	100	99.112	0.000000	1.062449	18.05
	0.033333	22.529	0.000000	100	99.512	0.000000	1.062455	16.5553
	0.050000	22.1194	0.000000	100	99.65	0.000000	1.062457	15.4383
	0.066667	21.4502	0.000000	100	99.729	0.000000	1.062458	13.8882
	0.083333	20.9665	0.000000	100	99.787	0.000000	1.062459	12.0642
	0.100000	20.3776	0.000000	100	99.833	0.000000	1.062460	10.2616
	0.116667	19.1157	0.000000	100	99.87	0.000000	1.062460	8.654694
	0.133333	17.0062	0.000000	100	99.895	0.000000	1.062461	7.305691
	0.150000	14.3653	0.000000	100	99.916	0.000000	1.062461	6.214865
	0.166667	11.6435	0.000000	100	99.929	0.000000	1.062461	5.355866
	0.183333	9.175053	0.000000	100	99.941	0.000000	1.062461	4.692998
	0.200000	7.107793	0.000000	100	99.95	0.000000	1.062461	4.188967
	0.216667	5.471832	0.000000	100	99.954	0.000000	1.062461	3.810730
	0.233333	4.217886	0.000000	100	99.958	0.000000	1.062462	3.529710
	0.250000	3.282185	0.000000	100	99.962	0.000000	1.062462	3.322211
	0.266667	2.596175	0.000000	100	99.962	0.000000	1.062462	3.170173
	0.283333	2.098257	0.000000	100	99.966	0.000000	1.062462	3.058827
	0.300000	1.742453	0.000000	100	99.966	0.000000	1.062462	2.977761
	0.316667	1.487802	0.000000	100	99.966	0.000000	1.062462	2.919007
	0.333333	1.303910	0.000000	100	99.97	0.000000	1.062462	2.876403
	0.350000	1.172263	0.000000	100	99.97	0.000000	1.062462	2.845379
	0.366667	1.077053	0.000000	100	99.97	0.000000	1.062462	2.822642
	0.383333	1.007373	0.000000	100	99.97	0.000000	1.062462	2.806280
	0.400000	0.955841	0.000000	100	99.97	0.000000	1.062462	2.794168
	0.416667	0.921116	0.000000	100	99.97	0.000000	1.062462	2.785562
	0.433333	0.894382	0.000000	100	99.97	0.000000	1.062462	2.778975
	0.450000	0.874168	0.000000	100	99.97	0.000000	1.062462	2.774087
	0.466667	0.857933	0.000000	100	99.975	0.000000	1.062462	2.770475
	0.483333	0.848167	0.000000	100	99.97	0.000000	1.062462	2.767713
	0.500000	0.842033	0.000000	100	99.97	0.000000	1.062462	2.765694
	0.516667	0.840440	0.000000	100	99.97	0.000000	1.062462	2.764100
	0.533333	0.839165	0.000000	100	99.975	0.000000	1.062462	2.762826
	0.550000	0.837890	0.000000	100	99.975	0.000000	1.062462	2.761551
	0.566667	0.837252	0.000000	100	99.97	0.000000	1.062462	2.760913
	0.583333	0.836296	0.000000	100	99.97	0.000000	1.062462	2.759957
	0.600000	0.835553	0.000000	100	99.975	0.000000	1.062462	2.759213
	0.616667	0.834809	0.000000	100	99.97	0.000000	1.062462	2.758469
	0.633333	0.834384	0.000000	100	99.975	0.000000	1.062462	2.758044
	0.650000	0.833852	0.000000	100	99.97	0.000000	1.062462	2.757513
	0.666667	0.833321	0.000000	100	99.975	0.000000	1.062462	2.756982
	0.683333	0.832790	0.000000	100	99.975	0.000000	1.062462	2.756451
	0.700000	0.832365	0.000000	100	99.975	0.000000	1.062462	2.756026
	0.716667	0.831940	0.000000	100	99.97	0.000000	1.062462	2.755601
	0.733333	0.831727	0.000000	100	99.97	0.000000	1.062462	2.755388
	0.750000	0.831409	0.000000	100	99.97	0.000000	1.062462	2.755069
	0.766667	0.831090	0.000000	100	99.97	0.000000	1.062462	2.754751
	0.783333	0.830771	0.000000	100	99.975	0.000000	1.062462	2.754432
	0.800000	0.830453	0.000000	100	99.975	0.000000	1.062462	2.754113
	0.816667	0.829921	0.000000	100	99.975	0.000000	1.062462	2.753582
	0.833333	0.829815	0.000000	100	99.975	0.000000	1.062462	2.753476
	0.850000	0.829496	0.000000	100	99.975	0.000000	1.062462	2.753157
	0.866667	0.829072	0.000000	100	99.975	0.000000	1.062462	2.752732
	0.883333	0.828859	0.000000	100	99.975	0.000000	1.062462	2.752520
	0.900000	0.828859	0.000000	100	99.975	0.000000	1.062462	2.752520
	0.916667	0.828540	0.000000	100	99.97	0.000000	1.062462	2.752201
	0.933333	0.828222	0.000000	100	99.975	0.000000	1.062462	2.751882
	0.950000	0.828115	0.000000	100	99.975	0.000000	1.062462	2.751776
	0.966667	0.827903	0.000000	100	99.975	0.000000	1.062462	2.751563
	0.983333	0.827797	0.000000	100	99.975	0.000000	1.062462	2.751457
	1.000000	0.827690	0.000000	100	99.97	0.000000	1.062462	2.751351
	1.016667	0.827478	0.000000	100	99.975	0.000000	1.062462	2.751138
	1.033333	0.827478	0.000000	100	99.975	0.000000	1.062462	2.751138
	1.050000	0.827372	0.000000	100	99.975	0.000000	1.062462	2.751032
	1.066667	0.827265	0.000000	100	99.975	0.000000	1.062462	2.750926
	1.083333	0.827159	0.000000	100	99.975	0.000000	1.062462	2.750820
	1.100000	0.827053	0.000000	100	99.97	0.000000	1.062462	2.750713
	1.116667	0.827159	0.000000	100	99.975	0.000000	1.062462	2.750820
	1.133333	0.827053	0.000000	100	99.975	0.000000	1.062462	2.750714
	1.150000	0.826947	0.000000	100	99.975	0.000000	1.062462	2.750607
	1.166667	0.827053	0.000000	100	99.975	0.000000	1.062462	2.750714
	1.183333	0.826947	0.000000	100	99.975	0.000000	1.062462	2.750607
	1.200000	0.827053	0.000000	100	99.975	0.000000	1.062462	2.750714
	1.216667	0.827159	0.000000	100	99.975	0.000000	1.062462	2.750820
	1.233333	0.827159	0.000000	100	99.97	0.000000	1.062462	2.750820
	1.250000	0.827053	0.000000	100	99.975	0.000000	1.062462	2.750714
	1.266667	0.827159	0.000000	100	99.975	0.000000	1.062462	2.750820
	1.283333	0.827159	0.000000	100	99.975	0.000000	1.062462	2.750820
	1.300000	0.827478	0.000000	100	99.975	0.000000	1.062462	2.751138
	1.316667	0.827584	0.000000	100	99.975	0.000000	1.062462	2.751245
	1.333333	0.827584	0.000000	100	99.97	0.000000	1.062462	2.751245
	1.350000	0.827584	0.000000	100	99.975	0.000000	1.062462	2.751245
	1.366667	0.827690	0.000000	100	99.97	0.000000	1.062462	2.751351
	1.383333	0.827903	0.000000	100	99.97	0.000000	1.062462	2.751563
	1.400000	0.828115	0.000000	100	99.975	0.000000	1.062462	2.751776
	1.416667	0.828222	0.000000	100	99.975	0.000000	1.062462	2.751882
	1.433333	0.828221	0.000000	100	99.97	0.000000	1.062462	2.751882
	1.450000	0.828434	0.000000	100	99.975	0.000000	1.062462	2.752095
	1.466667	0.828434	0.000000	100	99.975	0.000000	1.062462	2.752095
	1.483333	0.828434	0.000000	100	99.975	0.000000	1.062462	2.752095
	1.500000	0.828222	0.000000	100	99.975	0.000000	1.062462	2.751882
	1.516667	0.827903	0.000000	100	99.975	0.000000	1.062462	2.751563
	1.533333	0.827690	0.000000	100	99.975	0.000000	1.062462	2.751351
	1.550000	0.827584	0.000000	100	99.975	0.000000	1.062462	2.751245
	1.566667	0.827478	0.000000	100	99.97	0.000000	1.062462	2.751138
	1.583333	0.827478	0.000000	100	99.975	0.000000	1.062462	2.751138
	1.600000	0.827478	0.000000	100	99.975	0.000000	1.062462	2.751138
	1.616667	0.827159	0.000000	100	99.975	0.000000	1.062462	2.750820
	1.633333	0.827159	0.000000	100	99.975	0.000000	1.062462	2.750820
	1.650000	0.827265	0.000000	100	99.975	0.000000	1.062462	2.750926
	1.666667	0.827159	0.000000	100	99.975	0.000000	1.062462	2.750820
	1.683333	0.827159	0.000000	100	99.975	0.000000	1.062462	2.750820
	1.700000	0.826840	0.000000	100	99.975	0.000000	1.062462	2.750501
	1.716667	0.826734	0.000000	100	99.975	0.000000	1.062462	2.750395
	1.733333	0.826628	0.000000	100	99.975	0.000000	1.062462	2.750289
	1.750000	0.826522	0.000000	100	99.975	0.000000	1.062462	2.750182
	1.766667	0.826309	0.000000	100	99.975	0.000000	1.062462	2.749970
	1.783333	0.826309	0.000000	100	99.975	0.000000	1.062462	2.749970
	1.800000	0.826309	0.000000	100	99.97	0.000000	1.062462	2.749970
	1.816667	0.826309	0.000000	100	99.975	0.000000	1.062462	2.749970
	1.833333	0.826203	0.000000	100	99.97	0.000000	1.062462	2.749863
	1.850000	0.826096	0.000000	100	99.97	0.000000	1.062462	2.749757
	1.866667	0.826203	0.000000	100	99.97	0.000000	1.062462	2.749863
	1.883333	0.826309	0.000000	100	99.97	0.000000	1.062462	2.749970
	1.900000	0.826309	0.000000	100	99.97	0.000000	1.062462	2.749970
	1.916667	0.826628	0.000000	100	99.975	0.000000	1.062462	2.750289
	1.933333	0.826946	0.000000	100	99.97	0.000000	1.062462	2.750607
	1.950000	0.826946	0.000000	100	99.97	0.000000	1.062462	2.750607
	1.966667	0.827159	0.000000	100	99.97	0.000000	1.062462	2.750820
	1.983333	0.827584	0.000000	100	99.97	0.000000	1.062462	2.751245
	2.000000	0.827690	0.000000	100	99.97	0.000000	1.062462	2.751351
	2.016667	0.827690	0.000000	100	99.97	0.000000	1.062462	2.751351
	2.033333	0.827797	0.000000	100	99.975	0.000000	1.062462	2.751457
	2.050000	0.828009	0.000000	100	99.97	0.000000	1.062462	2.751670
	2.066667	0.828115	0.000000	100	99.975	0.000000	1.062462	2.751776
	2.083333	0.828115	0.000000	100	99.975	0.000000	1.062462	2.751776
	2.100000	0.828222	0.000000	100	99.975	0.000000	1.062462	2.751882
	2.116667	0.828222	0.000000	100	99.975	0.000000	1.062462	2.751882
	2.133333	0.828328	0.000000	100	99.975	0.000000	1.062462	2.751988
	2.150000	0.828328	0.000000	100	99.97	0.000000	1.062462	2.751988
	2.166667	0.828222	0.000000	100	99.975	0.000000	1.062462	2.751882
	2.183333	0.828222	0.000000	100	99.975	0.000000	1.062462	2.751882
	2.200000	0.828115	0.000000	100	99.97	0.000000	1.062462	2.751776
	2.216667	0.828221	0.000000	100	99.97	0.000000	1.062462	2.751882
	2.233333	0.828221	0.000000	100	99.97	0.000000	1.062462	2.751882
	2.250000	0.828221	0.000000	100	99.97	0.000000	1.062462	2.751882
	2.266667	0.828115	0.000000	100	99.975	0.000000	1.062462	2.751776
	2.283333	0.828115	0.000000	100	99.97	0.000000	1.062462	2.751776
	2.300000	0.827796	0.000000	100	99.97	0.000000	1.062462	2.751457
	2.316667	0.827690	0.000000	100	99.97	0.000000	1.062462	2.751351
	2.333333	0.827584	0.000000	100	99.97	0.000000	1.062462	2.751245
	2.350000	0.827159	0.000000	100	99.97	0.000000	1.062462	2.750820
	2.366667	0.827159	0.000000	100	99.975	0.000000	1.062462	2.750820
	2.383333	0.827053	0.000000	100	99.97	0.000000	1.062462	2.750713
	2.400000	0.826946	0.000000	100	99.97	0.000000	1.062462	2.750607
	2.416667	0.826946	0.000000	100	99.97	0.000000	1.062462	2.750607
	2.433333	0.826840	0.000000	100	99.97	0.000000	1.062462	2.750501
	2.450000	0.826840	0.000000	100	99.975	0.000000	1.062462	2.750501
	2.466667	0.826946	0.000000	100	99.97	0.000000	1.062462	2.750607
	2.483333	0.827159	0.000000	100	99.975	0.000000	1.062462	2.750820
	2.500000	0.827159	0.000000	100	99.975	0.000000	1.062462	2.750820
	2.516667	0.827265	0.000000	100	99.97	0.000000	1.062462	2.750926
	2.533333	0.827371	0.000000	100	99.97	0.000000	1.062462	2.751032
	2.550000	0.827478	0.000000	100	99.97	0.000000	1.062462	2.751138
	2.566667	0.827584	0.000000	100	99.97	0.000000	1.062462	2.751245
	2.583333	0.827584	0.000000	100	99.97	0.000000	1.062462	2.751245
	2.600000	0.828009	0.000000	100	99.97	0.000000	1.062462	2.751670
	2.616667	0.828009	0.000000	100	99.97	0.000000	1.062462	2.751670
	2.633333	0.828009	0.000000	100	99.975	0.000000	1.062462	2.751670
	2.650000	0.828221	0.000000	100	99.97	0.000000	1.062462	2.751882
	2.666667	0.828328	0.000000	100	99.97	0.000000	1.062462	2.751988
	2.683333	0.828328	0.000000	100	99.975	0.000000	1.062462	2.751988
	2.700000	0.828646	0.000000	100	99.97	0.000000	1.062462	2.752307
	2.716667	0.828859	0.000000	100	99.97	0.000000	1.062462	2.752519
	2.733333	0.829284	0.000000	100	99.97	0.000000	1.062462	2.752944
	2.750000	0.829496	0.000000	100	99.97	0.000000	1.062462	2.753157
	2.766667	0.829709	0.000000	100	99.97	0.000000	1.062462	2.753369
	2.783333	0.829815	0.000000	100	99.975	0.000000	1.062462	2.753476
	2.800000	0.829815	0.000000	100	99.97	0.000000	1.062462	2.753476
	2.816667	0.830240	0.000000	100	99.97	0.000000	1.062462	2.753901
	2.833333	0.830453	0.000000	100	99.97	0.000000	1.062462	2.754113
	2.850000	0.830559	0.000000	100	99.97	0.000000	1.062462	2.754219
	2.866667	0.830771	0.000000	100	99.97	0.000000	1.062462	2.754432
	2.883333	0.831196	0.000000	100	99.975	0.000000	1.062462	2.754857
	2.900000	0.831303	0.000000	100	99.975	0.000000	1.062462	2.754963
	2.916667	0.831515	0.000000	100	99.975	0.000000	1.062462	2.755176
	2.933333	0.831621	0.000000	100	99.975	0.000000	1.062462	2.755282
	2.950000	0.831727	0.000000	100	99.97	0.000000	1.062462	2.755388
	2.966667	0.831834	0.000000	100	99.975	0.000000	1.062462	2.755495
	2.983333	0.832046	0.000000	100	99.975	0.000000	1.062462	2.755707
	3.000000	0.832152	0.000000	100	99.97	0.000000	1.062462	2.755813
	3.016667	0.832152	0.000000	100	99.97	0.000000	1.062462	2.755813
	3.033333	0.832259	0.000000	100	99.97	0.000000	1.062462	2.755919
	3.050000	0.832046	0.000000	100	99.975	0.000000	1.062462	2.755707
	3.066667	0.832046	0.000000	100	99.97	0.000000	1.062462	2.755707
	3.083333	0.831940	0.000000	100	99.97	0.000000	1.062462	2.755601
	3.100000	0.832046	0.000000	100	99.97	0.000000	1.062462	2.755707
	3.116667	0.832046	0.000000	100	99.97	0.000000	1.062462	2.755707
	3.133333	0.831940	0.000000	100	99.975	0.000000	1.062462	2.755601
	3.150000	0.831940	0.000000	100	99.975	0.000000	1.062462	2.755601
	3.166667	0.831727	0.000000	100	99.97	0.000000	1.062462	2.755388
	3.183333	0.831621	0.000000	100	99.97	0.000000	1.062462	2.755282
	3.200000	0.831515	0.000000	100	99.97	0.000000	1.062462	2.755176
	3.216667	0.831621	0.000000	100	99.975	0.000000	1.062462	2.755282
	3.233333	0.831834	0.000000	100	99.97	0.000000	1.062462	2.755494
	3.250000	0.831834	0.000000	100	99.97	0.000000	1.062462	2.755494
	3.266667	0.831834	0.000000	100	99.97	0.000000	1.062462	2.755494
	3.283333	0.831621	0.000000	100	99.97	0.000000	1.062462	2.755282
	3.300000	0.831515	0.000000	100	99.975	0.000000	1.062462	2.755176
	3.316667	0.831409	0.000000	100	99.97	0.000000	1.062462	2.755069
	3.333333	0.831302	0.000000	100	99.97	0.000000	1.062462	2.754963
	3.350000	0.831409	0.000000	100	99.975	0.000000	1.062462	2.755070
	3.366667	0.831409	0.000000	100	99.975	0.000000	1.062462	2.755070
	3.383333	0.831090	0.000000	100	99.975	0.000000	1.062462	2.754751
	3.400000	0.831090	0.000000	100	99.97	0.000000	1.062462	2.754751
	3.416667	0.830984	0.000000	100	99.97	0.000000	1.062462	2.754644
	3.433333	0.830771	0.000000	100	99.975	0.000000	1.062462	2.754432
	3.450000	0.830559	0.000000	100	99.975	0.000000	1.062462	2.754220
	3.466667	0.830453	0.000000	100	99.975	0.000000	1.062462	2.754113
	3.483333	0.830453	0.000000	100	99.975	0.000000	1.062462	2.754113
	3.500000	0.830559	0.000000	100	99.975	0.000000	1.062462	2.754220
	3.516667	0.830453	0.000000	100	99.975	0.000000	1.062462	2.754113
	3.533333	0.830240	0.000000	100	99.975	0.000000	1.062462	2.753901
	3.550000	0.830346	0.000000	100	99.975	0.000000	1.062462	2.754007
	3.566667	0.830346	0.000000	100	99.97	0.000000	1.062462	2.754007
	3.583333	0.830240	0.000000	100	99.97	0.000000	1.062462	2.753901
	3.600000	0.830346	0.000000	100	99.97	0.000000	1.062462	2.754007
	3.616667	0.830346	0.000000	100	99.975	0.000000	1.062462	2.754007
	3.633333	0.830134	0.000000	100	99.97	0.000000	1.062462	2.753794
	3.650000	0.829815	0.000000	100	99.97	0.000000	1.062462	2.753476
	3.666667	0.829815	0.000000	100	99.97	0.000000	1.062462	2.753476
	3.683333	0.830028	0.000000	100	99.97	0.000000	1.062462	2.753688
	3.700000	0.829921	0.000000	100	99.975	0.000000	1.062462	2.753582
	3.716667	0.829709	0.000000	100	99.975	0.000000	1.062462	2.753370
	3.733333	0.829709	0.000000	100	99.97	0.000000	1.062462	2.753369
	3.750000	0.829390	0.000000	100	99.975	0.000000	1.062462	2.753051
	3.766667	0.829071	0.000000	100	99.97	0.000000	1.062462	2.752732
	3.783333	0.828753	0.000000	100	99.975	0.000000	1.062462	2.752413
	3.800000	0.828434	0.000000	100	99.975	0.000000	1.062462	2.752095
	3.816667	0.828115	0.000000	100	99.975	0.000000	1.062462	2.751776
	3.833333	0.827796	0.000000	100	99.97	0.000000	1.062462	2.751457
	3.850000	0.827584	0.000000	100	99.975	0.000000	1.062462	2.751245
	3.866667	0.827371	0.000000	100	99.97	0.000000	1.062462	2.751032
	3.883333	0.827159	0.000000	100	99.97	0.000000	1.062462	2.750820
	3.900000	0.826946	0.000000	100	99.97	0.000000	1.062462	2.750607
	3.916667	0.826734	0.000000	100	99.97	0.000000	1.062462	2.750395
	3.933333	0.826521	0.000000	100	99.97	0.000000	1.062462	2.750182
	3.950000	0.826309	0.000000	100	99.97	0.000000	1.062462	2.749970
	3.966667	0.826203	0.000000	100	99.97	0.000000	1.062462	2.749863
	3.983333	0.826096	0.000000	100	99.97	0.000000	1.062462	2.749757
	4.000000	0.825884	0.000000	100	99.97	0.000000	1.062462	2.749545
	4.016667	0.825884	0.000000	100	99.97	0.000000	1.062462	2.749545
	4.033333	0.825672	0.000000	100	99.975	0.000000	1.062462	2.749332
	4.050000	0.825459	0.000000	100	99.97	0.000000	1.062462	2.749120
	4.066667	0.825459	0.000000	100	99.97	0.000000	1.062462	2.749120
	4.083333	0.825246	0.000000	100	99.97	0.000000	1.062462	2.748907
	4.100000	0.825140	0.000000	100	99.97	0.000000	1.062462	2.748801
	4.116667	0.824821	0.000000	100	99.97	0.000000	1.062462	2.748482
	4.133333	0.824715	0.000000	100	99.97	0.000000	1.062462	2.748376
	4.150000	0.824609	0.000000	100	99.97	0.000000	1.062462	2.748270
	4.166667	0.824609	0.000000	100	99.97	0.000000	1.062462	2.748270
	4.183333	0.824396	0.000000	100	99.97	0.000000	1.062462	2.748057
	4.200000	0.824290	0.000000	100	99.97	0.000000	1.062462	2.747951
	4.216667	0.824503	0.000000	100	99.97	0.000000	1.062462	2.748163
	4.233333	0.824609	0.000000	100	99.97	0.000000	1.062462	2.748270
	4.250000	0.824715	0.000000	100	99.97	0.000000	1.062462	2.748376
	4.266667	0.825140	0.000000	100	99.97	0.000000	1.062462	2.748801
	4.283333	0.825353	0.000000	100	99.97	0.000000	1.062462	2.749013
	4.300000	0.825565	0.000000	100	99.97	0.000000	1.062462	2.749226
	4.316667	0.825778	0.000000	100	99.97	0.000000	1.062462	2.749438
	4.333333	0.825990	0.000000	100	99.97	0.000000	1.062462	2.749651
	4.350000	0.826203	0.000000	100	99.97	0.000000	1.062462	2.749863
	4.366667	0.826309	0.000000	100	99.97	0.000000	1.062462	2.749970
	4.383333	0.826415	0.000000	100	99.97	0.000000	1.062462	2.750076
	4.400000	0.826628	0.000000	100	99.97	0.000000	1.062462	2.750288
	4.416667	0.826840	0.000000	100	99.97	0.000000	1.062462	2.750501
	4.433333	0.826946	0.000000	100	99.97	0.000000	1.062462	2.750607
	4.450000	0.827053	0.000000	100	99.97	0.000000	1.062462	2.750713
	4.466667	0.827159	0.000000	100	99.97	0.000000	1.062462	2.750820
	4.483333	0.827265	0.000000	100	99.97	0.000000	1.062462	2.750926
	4.500000	0.827265	0.000000	100	99.97	0.000000	1.062462	2.750926
	4.516667	0.827371	0.000000	100	99.97	0.000000	1.062462	2.751032
	4.533333	0.827371	0.000000	100	99.97	0.000000	1.062462	2.751032
	4.550000	0.827265	0.000000	100	99.97	0.000000	1.062462	2.750926
	4.566667	0.827159	0.000000	100	99.97	0.000000	1.062462	2.750820
	4.583333	0.827053	0.000000	100	99.97	0.000000	1.062462	2.750713
	4.600000	0.827159	0.000000	100	99.97	0.000000	1.062462	2.750820
	4.616667	0.827371	0.000000	100	99.97	0.000000	1.062462	2.751032
	4.633333	0.827478	0.000000	100	99.97	0.000000	1.062462	2.751138
	4.650000	0.827478	0.000000	100	99.97	0.000000	1.062462	2.751138
	4.666667	0.827371	0.000000	100	99.97	0.000000	1.062462	2.751032
	4.683333	0.827371	0.000000	100	99.97	0.000000	1.062462	2.751032
	4.700000	0.827159	0.000000	100	99.97	0.000000	1.062462	2.750820
	4.716667	0.826946	0.000000	100	99.97	0.000000	1.062462	2.750607
	4.733333	0.826840	0.000000	100	99.97	0.000000	1.062462	2.750501
	4.750000	0.826628	0.000000	100	99.97	0.000000	1.062462	2.750288
	4.766667	0.826628	0.000000	100	99.97	0.000000	1.062462	2.750288
	4.783333	0.826734	0.000000	100	99.97	0.000000	1.062462	2.750395
	4.800000	0.826946	0.000000	100	99.97	0.000000	1.062462	2.750607
	4.816667	0.827159	0.000000	100	99.97	0.000000	1.062462	2.750820
	4.833333	0.827265	0.000000	100	99.97	0.000000	1.062462	2.750926
	4.850000	0.827159	0.000000	100	99.97	0.000000	1.062462	2.750820
	4.866667	0.827371	0.000000	100	99.97	0.000000	1.062462	2.751032
	4.883333	0.827371	0.000000	100	99.97	0.000000	1.062462	2.751032
	4.900000	0.827371	0.000000	100	99.97	0.000000	1.062462	2.751032
	4.916667	0.827478	0.000000	100	99.97	0.000000	1.062462	2.751138
	4.933333	0.827584	0.000000	100	99.97	0.000000	1.062462	2.751245
	4.950000	0.827690	0.000000	100	99.97	0.000000	1.062462	2.751351
	4.966667	0.827796	0.000000	100	99.97	0.000000	1.062462	2.751457
2) DSC 8500 Temperature Scan
	4.983333	0.828156	0.000000	100.004	99.97	0.000000	1.062462	2.751776
	4.984667	0.828322	0.000000	100.02	99.97	0.000000	1.062462	2.751776
	4.986000	0.827477	0.000000	100.041	99.975	0.000000	1.062462	2.750714
	4.987333	0.825675	0.000000	100.062	99.975	0.000000	1.062462	2.748695
	4.988667	0.823130	0.000000	100.083	99.975	0.000000	1.062462	2.745932
	4.990000	0.833319	0.000000	100.1	99.97	0.000000	1.062462	2.742320
	4.991333	0.829812	0.000000	100.12	99.97	0.000000	1.062462	2.738389
	4.992667	0.827655	0.000000	100.141	99.975	0.000000	1.062462	2.734245
	4.994000	0.827647	0.000000	100.162	99.975	0.000000	1.062462	2.730314
	4.995333	0.829980	0.000000	100.183	99.979	0.000000	1.062462	2.726808
	4.996667	0.834052	0.000000	100.2	99.983	0.000000	1.062462	2.723727
	4.998000	0.839450	0.000000	100.22	99.983	0.000000	1.062462	2.721177
	4.999333	0.845703	0.000000	100.241	99.987	0.000000	1.062462	2.719053
	5.000667	0.852733	0.000000	100.262	99.991	0.000000	1.062462	2.717778
	5.002000	0.859872	0.000000	100.283	100	0.000000	1.062462	2.717034
	5.003333	0.866989	0.000000	100.3	100.004	0.000000	1.062462	2.716928
	5.004667	0.874004	0.000000	100.32	100.008	0.000000	1.062462	2.717566
	5.006000	0.880557	0.000000	100.341	100.016	0.000000	1.062462	2.718735
	5.007333	0.886662	0.000000	100.362	100.029	0.000000	1.062463	2.720542
	5.008667	0.891884	0.000000	100.383	100.037	0.000000	1.062463	2.722667
	5.010000	0.896715	0.000000	100.4	100.05	0.000000	1.062463	2.725642
	5.011333	0.900792	0.000000	100.42	100.062	0.000000	1.062463	2.729043
	5.012667	0.904116	0.000000	100.441	100.066	0.000000	1.062463	2.732868
	5.014000	0.906938	0.000000	100.462	100.079	0.000000	1.062463	2.737331
	5.015333	0.908997	0.000000	100.483	100.091	0.000000	1.062464	2.742112
	5.016667	0.910707	0.000000	100.5	100.104	0.000000	1.062464	2.747531
	5.018000	0.911778	0.000000	100.52	100.116	0.000000	1.062464	2.753163
	5.019333	0.912804	0.000000	100.541	100.133	0.000000	1.062464	2.759538
	5.020667	0.913610	0.000000	100.562	100.145	0.000000	1.062464	2.766338
	5.022000	0.914118	0.000000	100.579	100.158	0.000000	1.062465	2.773351
	5.023333	0.914923	0.000000	100.6	100.175	0.000000	1.062465	2.781002
	5.024667	0.915878	0.000000	100.62	100.191	0.000000	1.062465	2.789077
	5.026000	0.917114	0.000000	100.641	100.208	0.000000	1.062465	2.797471
	5.027333	0.918840	0.000000	100.662	100.225	0.000000	1.062466	2.806290
	5.028667	0.921254	0.000000	100.679	100.241	0.000000	1.062466	2.815641
	5.030000	0.924578	0.000000	100.7	100.254	0.000000	1.062466	2.825522
	5.031333	0.928547	0.000000	100.72	100.27	0.000000	1.062466	2.835616
	5.032667	0.933769	0.000000	100.741	100.287	0.000000	1.062466	2.846348
	5.034000	0.939987	0.000000	100.762	100.304	0.000000	1.062467	2.857398
	5.035333	0.947440	0.000000	100.779	100.325	0.000000	1.062467	2.868980
	5.036667	0.955985	0.000000	100.8	100.341	0.000000	1.062467	2.880774
	5.038000	0.965974	0.000000	100.82	100.358	0.000000	1.062468	2.893099
	5.039333	0.977253	0.000000	100.841	100.379	0.000000	1.062468	2.905743
	5.040667	0.990061	0.000000	100.862	100.4	0.000000	1.062468	2.918919
	5.042000	1.004282	0.000000	100.879	100.412	0.000000	1.062468	2.932519
	5.043333	1.019568	0.000000	100.9	100.429	0.000000	1.062469	2.946119
	5.044667	1.036496	0.000000	100.92	100.45	0.000000	1.062469	2.960357
	5.046000	1.054871	0.000000	100.941	100.466	0.000000	1.062469	2.975020
	5.047333	1.074454	0.000000	100.962	100.487	0.000000	1.062469	2.989895
	5.048667	1.095160	0.000000	100.979	100.508	0.000000	1.062470	3.004983
	5.050000	1.117133	0.000000	101	100.525	0.000000	1.062470	3.020390
	5.051333	1.140178	0.000000	101.02	100.541	0.000000	1.062470	3.036009
	5.052667	1.164323	0.000000	101.041	100.558	0.000000	1.062471	3.051947
	5.054000	1.189475	0.000000	101.058	100.579	0.000000	1.062471	3.068203
	5.055333	1.215440	0.000000	101.079	100.6	0.000000	1.062471	3.084566
	5.056667	1.242284	0.000000	101.1	100.62	0.000000	1.062471	3.101248
	5.058000	1.269828	0.000000	101.12	100.645	0.000000	1.062472	3.118142
	5.059333	1.297916	0.000000	101.141	100.658	0.000000	1.062472	3.135142
	5.060667	1.326153	0.000000	101.158	100.679	0.000000	1.062472	3.152037
	5.062000	1.354878	0.000000	101.179	100.7	0.000000	1.062473	3.169143
	5.063333	1.384211	0.000000	101.2	100.72	0.000000	1.062473	3.186675
	5.064667	1.413714	0.000000	101.22	100.737	0.000000	1.062473	3.204313
	5.066000	1.443107	0.000000	101.241	100.754	0.000000	1.062473	3.221845
	5.067333	1.472495	0.000000	101.258	100.775	0.000000	1.062474	3.239483
	5.068667	1.501748	0.000000	101.279	100.791	0.000000	1.062474	3.257120
	5.070000	1.530869	0.000000	101.3	100.812	0.000000	1.062474	3.274865
	5.071333	1.559903	0.000000	101.32	100.833	0.000000	1.062475	3.292821
	5.072667	1.588251	0.000000	101.341	100.85	0.000000	1.062475	3.310459
	5.074000	1.616464	0.000000	101.358	100.87	0.000000	1.062475	3.328416
	5.075333	1.644041	0.000000	101.379	100.891	0.000000	1.062476	3.346160
	5.076667	1.671284	0.000000	101.4	100.908	0.000000	1.062476	3.364117
	5.078000	1.697619	0.000000	101.42	100.933	0.000000	1.062476	3.381755
	5.079333	1.723462	0.000000	101.441	100.95	0.000000	1.062476	3.399500
	5.080667	1.748504	0.000000	101.458	100.966	0.000000	1.062477	3.417137
	5.082000	1.772803	0.000000	101.479	100.987	0.000000	1.062477	3.434669
	5.083333	1.796296	0.000000	101.5	101.004	0.000000	1.062477	3.452095
	5.084667	1.819008	0.000000	101.52	101.025	0.000000	1.062478	3.469520
	5.086000	1.840772	0.000000	101.541	101.045	0.000000	1.062478	3.486734
	5.087333	1.861651	0.000000	101.558	101.062	0.000000	1.062478	3.503840
	5.088667	1.881711	0.000000	101.579	101.087	0.000000	1.062478	3.520841
	5.090000	1.900891	0.000000	101.6	101.104	0.000000	1.062479	3.537735
	5.091333	1.918858	0.000000	101.62	101.125	0.000000	1.062479	3.554205
	5.092667	1.936242	0.000000	101.637	101.145	0.000000	1.062479	3.570887
	5.094000	1.952586	0.000000	101.658	101.166	0.000000	1.062480	3.587250
	5.095333	1.967857	0.000000	101.679	101.183	0.000000	1.062480	3.603294
	5.096667	1.982588	0.000000	101.7	101.208	0.000000	1.062480	3.619552
	5.098000	1.996144	0.000000	101.72	101.22	0.000000	1.062480	3.635383
	5.099333	2.008736	0.000000	101.737	101.245	0.000000	1.062481	3.651003
	5.100667	2.020472	0.000000	101.758	101.266	0.000000	1.062481	3.666410
	5.102000	2.031414	0.000000	101.779	101.283	0.000000	1.062481	3.681711
	5.103333	2.041467	0.000000	101.8	101.304	0.000000	1.062482	3.696799
	5.104667	2.050766	0.000000	101.82	101.325	0.000000	1.062482	3.711781
	5.106000	2.059091	0.000000	101.837	101.341	0.000000	1.062482	3.726444
	5.107333	2.066742	0.000000	101.858	101.362	0.000000	1.062483	3.741001
	5.108667	2.073526	0.000000	101.879	101.379	0.000000	1.062483	3.755239
	5.110000	2.079780	0.000000	101.9	101.4	0.000000	1.062483	3.769478
	5.111333	2.084980	0.000000	101.92	101.42	0.000000	1.062483	3.783185
	5.112667	2.089562	0.000000	101.937	101.441	0.000000	1.062484	3.796786
	5.114000	2.093827	0.000000	101.958	101.462	0.000000	1.062484	3.810493
	5.115333	2.097126	0.000000	101.979	101.483	0.000000	1.062484	3.823669
	5.116667	2.099836	0.000000	102	101.504	0.000000	1.062485	3.836632
	5.118000	2.102054	0.000000	102.02	101.525	0.000000	1.062485	3.849490
	5.119333	2.103781	0.000000	102.037	101.541	0.000000	1.062485	3.862240
	5.120667	2.104814	0.000000	102.058	101.562	0.000000	1.062486	3.874566
	5.122000	2.105778	0.000000	102.079	101.583	0.000000	1.062486	3.887105
	5.123333	2.105946	0.000000	102.1	101.604	0.000000	1.062486	3.899112
	5.124667	2.105819	0.000000	102.116	101.625	0.000000	1.062487	3.911119
	5.126000	2.105201	0.000000	102.137	101.641	0.000000	1.062487	3.922808
	5.127333	2.104284	0.000000	102.158	101.666	0.000000	1.062487	3.934390
	5.128667	2.102797	0.000000	102.179	101.679	0.000000	1.062487	3.945547
	5.130000	2.101266	0.000000	102.2	101.704	0.000000	1.062488	3.956811
	5.131333	2.099128	0.000000	102.216	101.725	0.000000	1.062488	3.967649
	5.132667	2.096648	0.000000	102.237	101.745	0.000000	1.062488	3.978169
	5.134000	2.093971	0.000000	102.258	101.762	0.000000	1.062489	3.988582
	5.135333	2.090999	0.000000	102.279	101.779	0.000000	1.062489	3.998783
	5.136667	2.087975	0.000000	102.3	101.8	0.000000	1.062489	4.008984
	5.138000	2.084574	0.000000	102.316	101.82	0.000000	1.062489	4.018867
	5.139333	2.080797	0.000000	102.337	101.845	0.000000	1.062490	4.028324
	5.140667	2.077230	0.000000	102.358	101.866	0.000000	1.062490	4.037994
	5.142000	2.073262	0.000000	102.379	101.883	0.000000	1.062490	4.047239
	5.143333	2.069010	0.000000	102.4	101.904	0.000000	1.062491	4.056165
	5.144667	2.064979	0.000000	102.416	101.92	0.000000	1.062491	4.065303
	5.146000	2.060521	0.000000	102.437	101.941	0.000000	1.062491	4.073910
	5.147333	2.055919	0.000000	102.458	101.962	0.000000	1.062492	4.082305
	5.148667	2.051315	0.000000	102.479	101.979	0.000000	1.062492	4.090594
	5.150000	2.046800	0.000000	102.5	102	0.000000	1.062492	4.098882
	5.151333	2.042014	0.000000	102.516	102.02	0.000000	1.062493	4.106852
	5.152667	2.037294	0.000000	102.537	102.037	0.000000	1.062493	4.114716
	5.154000	2.032592	0.000000	102.558	102.062	0.000000	1.062493	4.122473
	5.155333	2.027805	0.000000	102.579	102.083	0.000000	1.062493	4.130018
	5.156667	2.023047	0.000000	102.6	102.104	0.000000	1.062494	4.137457
	5.158000	2.018069	0.000000	102.616	102.125	0.000000	1.062494	4.144577
	5.159333	2.013390	0.000000	102.637	102.141	0.000000	1.062494	4.151803
	5.160667	2.008319	0.000000	102.658	102.158	0.000000	1.062495	4.158498
	5.162000	2.003520	0.000000	102.679	102.175	0.000000	1.062495	4.165298
	5.163333	1.998634	0.000000	102.695	102.2	0.000000	1.062495	4.171887
	5.164667	1.993742	0.000000	102.716	102.216	0.000000	1.062495	4.178263
	5.166000	1.989223	0.000000	102.737	102.233	0.000000	1.062496	4.184852
	5.167333	1.984341	0.000000	102.758	102.258	0.000000	1.062496	4.190910
	5.168667	1.979657	0.000000	102.779	102.279	0.000000	1.062496	4.196967
	5.170000	1.975080	0.000000	102.795	102.295	0.000000	1.062497	4.203024
	5.171333	1.970490	0.000000	102.816	102.316	0.000000	1.062497	4.208869
	5.172667	1.965894	0.000000	102.837	102.333	0.000000	1.062497	4.214501
	5.174000	1.961471	0.000000	102.858	102.358	0.000000	1.062498	4.220134
	5.175333	1.957001	0.000000	102.879	102.375	0.000000	1.062498	4.225554
	5.176667	1.952556	0.000000	102.895	102.395	0.000000	1.062498	4.230868
	5.178000	1.948231	0.000000	102.916	102.416	0.000000	1.062498	4.236075
	5.179333	1.943980	0.000000	102.937	102.437	0.000000	1.062499	4.241176
	5.180667	1.939684	0.000000	102.958	102.458	0.000000	1.062499	4.246065
	5.182000	1.935483	0.000000	102.979	102.479	0.000000	1.062499	4.250848
	5.183333	1.931326	0.000000	102.995	102.495	0.000000	1.062500	4.255524
	5.184667	1.927252	0.000000	103.016	102.516	0.000000	1.062500	4.260094
	5.186000	1.923368	0.000000	103.037	102.533	0.000000	1.062500	4.264663
	5.187333	1.919465	0.000000	103.058	102.554	0.000000	1.062501	4.269021
	5.188667	1.915525	0.000000	103.079	102.575	0.000000	1.062501	4.273166
	5.190000	1.911820	0.000000	103.095	102.6	0.000000	1.062501	4.277417
	5.191333	1.907907	0.000000	103.116	102.616	0.000000	1.062501	4.281243
	5.192667	1.904372	0.000000	103.137	102.633	0.000000	1.062502	4.285282
	5.194000	1.900789	0.000000	103.158	102.654	0.000000	1.062502	4.289108
	5.195333	1.897333	0.000000	103.175	102.675	0.000000	1.062502	4.292934
	5.196667	1.893968	0.000000	103.195	102.695	0.000000	1.062503	4.296654
	5.198000	1.890676	0.000000	103.216	102.716	0.000000	1.062503	4.300268
	5.199333	1.887442	0.000000	103.237	102.737	0.000000	1.062503	4.303776
	5.200667	1.884136	0.000000	103.258	102.758	0.000000	1.062504	4.307071
	5.202000	1.881270	0.000000	103.275	102.779	0.000000	1.062504	4.310685
	5.203333	1.878275	0.000000	103.295	102.795	0.000000	1.062504	4.313979
	5.204667	1.875239	0.000000	103.316	102.816	0.000000	1.062504	4.317062
	5.206000	1.872543	0.000000	103.337	102.833	0.000000	1.062505	4.320357
	5.207333	1.869765	0.000000	103.358	102.854	0.000000	1.062505	4.323439
	5.208667	1.866904	0.000000	103.375	102.875	0.000000	1.062505	4.326309
	5.210000	1.864106	0.000000	103.395	102.9	0.000000	1.062506	4.329073
	5.211333	1.861555	0.000000	103.416	102.916	0.000000	1.062506	4.331943
	5.212667	1.858814	0.000000	103.437	102.937	0.000000	1.062506	4.334494
	5.214000	1.856305	0.000000	103.458	102.954	0.000000	1.062507	4.337152
	5.215333	1.853674	0.000000	103.475	102.975	0.000000	1.062507	4.339597
	5.216667	1.851430	0.000000	103.495	102.995	0.000000	1.062507	4.342254
	5.218000	1.849000	0.000000	103.516	103.016	0.000000	1.062507	4.344593
	5.219333	1.846580	0.000000	103.537	103.037	0.000000	1.062508	4.346826
	5.220667	1.844281	0.000000	103.558	103.058	0.000000	1.062508	4.349058
	5.222000	1.841862	0.000000	103.575	103.079	0.000000	1.062508	4.351078
	5.223333	1.839914	0.000000	103.595	103.1	0.000000	1.062509	4.353417
	5.224667	1.837864	0.000000	103.616	103.12	0.000000	1.062509	4.355543
	5.226000	1.835698	0.000000	103.637	103.141	0.000000	1.062509	4.357457
	5.227333	1.833703	0.000000	103.654	103.154	0.000000	1.062510	4.359477
	5.228667	1.831880	0.000000	103.675	103.175	0.000000	1.062510	4.361497
	5.230000	1.829823	0.000000	103.695	103.195	0.000000	1.062510	4.363198
	5.231333	1.828075	0.000000	103.716	103.22	0.000000	1.062511	4.365112
	5.232667	1.826334	0.000000	103.737	103.237	0.000000	1.062511	4.366919
	5.234000	1.824540	0.000000	103.754	103.254	0.000000	1.062511	4.368620
	5.235333	1.822978	0.000000	103.775	103.275	0.000000	1.062511	4.370428
	5.236667	1.821302	0.000000	103.795	103.3	0.000000	1.062512	4.372023
	5.238000	1.819930	0.000000	103.816	103.32	0.000000	1.062512	4.373831
	5.239333	1.818530	0.000000	103.837	103.341	0.000000	1.062512	4.375532
	5.240667	1.816976	0.000000	103.854	103.358	0.000000	1.062513	4.377021
	5.242000	1.815649	0.000000	103.875	103.379	0.000000	1.062513	4.378616
	5.243333	1.814393	0.000000	103.895	103.395	0.000000	1.062513	4.380211
	5.244667	1.813022	0.000000	103.916	103.416	0.000000	1.062513	4.381593
	5.246000	1.811830	0.000000	103.937	103.437	0.000000	1.062514	4.383082
	5.247333	1.810565	0.000000	103.954	103.454	0.000000	1.062514	4.384464
	5.248667	1.809401	0.000000	103.975	103.479	0.000000	1.062514	4.385847
	5.250000	1.808528	0.000000	103.995	103.5	0.000000	1.062515	4.387442
	5.251333	1.807325	0.000000	104.016	103.516	0.000000	1.062515	4.388612
	5.252667	1.806489	0.000000	104.037	103.533	0.000000	1.062515	4.390100
	5.254000	1.805478	0.000000	104.054	103.554	0.000000	1.062516	4.391377
	5.255333	1.804581	0.000000	104.075	103.575	0.000000	1.062516	4.392653
	5.256667	1.803852	0.000000	104.095	103.591	0.000000	1.062516	4.394035
	5.258000	1.802974	0.000000	104.116	103.612	0.000000	1.062516	4.395205
	5.259333	1.802463	0.000000	104.137	103.637	0.000000	1.062517	4.396695
	5.260667	1.801759	0.000000	104.154	103.654	0.000000	1.062517	4.397971
	5.262000	1.801039	0.000000	104.175	103.675	0.000000	1.062517	4.399141
	5.263333	1.800579	0.000000	104.195	103.691	0.000000	1.062518	4.400523
	5.264667	1.799882	0.000000	104.216	103.708	0.000000	1.062518	4.401587
	5.266000	1.799206	0.000000	104.233	103.729	0.000000	1.062518	4.402650
	5.267333	1.798726	0.000000	104.254	103.75	0.000000	1.062519	4.403820
	5.268667	1.798290	0.000000	104.275	103.77	0.000000	1.062519	4.404990
	5.270000	1.797685	0.000000	104.295	103.795	0.000000	1.062519	4.405948
	5.271333	1.797143	0.000000	104.316	103.812	0.000000	1.062519	4.406906
	5.272667	1.796623	0.000000	104.333	103.833	0.000000	1.062520	4.407863
	5.274000	1.796293	0.000000	104.354	103.858	0.000000	1.062520	4.408927
	5.275333	1.796007	0.000000	104.375	103.875	0.000000	1.062520	4.409991
	5.276667	1.795545	0.000000	104.395	103.891	0.000000	1.062521	4.410842
	5.278000	1.795133	0.000000	104.416	103.916	0.000000	1.062521	4.411693
	5.279333	1.794615	0.000000	104.433	103.933	0.000000	1.062521	4.412438
	5.280667	1.794374	0.000000	104.454	103.954	0.000000	1.062522	4.413396
	5.282000	1.794070	0.000000	104.475	103.975	0.000000	1.062522	4.414247
	5.283333	1.793800	0.000000	104.495	103.991	0.000000	1.062522	4.415098
	5.284667	1.793591	0.000000	104.516	104.012	0.000000	1.062522	4.415950
	5.286000	1.793245	0.000000	104.533	104.033	0.000000	1.062523	4.416695
	5.287333	1.793053	0.000000	104.554	104.054	0.000000	1.062523	4.417546
	5.288667	1.792838	0.000000	104.575	104.075	0.000000	1.062523	4.418291
	5.290000	1.792432	0.000000	104.595	104.095	0.000000	1.062524	4.418824
	5.291333	1.792374	0.000000	104.616	104.116	0.000000	1.062524	4.419675
	5.292667	1.791988	0.000000	104.633	104.137	0.000000	1.062524	4.420207
	5.294000	1.791767	0.000000	104.654	104.154	0.000000	1.062525	4.420846
	5.295333	1.791571	0.000000	104.675	104.175	0.000000	1.062525	4.421485
	5.296667	1.791083	0.000000	104.695	104.195	0.000000	1.062525	4.421805
	5.298000	1.791026	0.000000	104.712	104.212	0.000000	1.062525	4.422550
	5.299333	1.790720	0.000000	104.733	104.233	0.000000	1.062526	4.422976
	5.300667	1.790436	0.000000	104.754	104.254	0.000000	1.062526	4.423402
	5.302000	1.790062	0.000000	104.775	104.275	0.000000	1.062526	4.423722
	5.303333	1.790018	0.000000	104.795	104.295	0.000000	1.062527	4.424361
	5.304667	1.789550	0.000000	104.812	104.316	0.000000	1.062527	4.424575
	5.306000	1.789462	0.000000	104.833	104.333	0.000000	1.062527	4.425107
	5.307333	1.789182	0.000000	104.854	104.354	0.000000	1.062528	4.425427
	5.308667	1.788927	0.000000	104.875	104.375	0.000000	1.062528	4.425747
	5.310000	1.788674	0.000000	104.895	104.395	0.000000	1.062528	4.426067
	5.311333	1.788512	0.000000	104.912	104.416	0.000000	1.062529	4.426494
	5.312667	1.788431	0.000000	104.933	104.433	0.000000	1.062529	4.426920
	5.314000	1.788155	0.000000	104.954	104.454	0.000000	1.062529	4.427134
	5.315333	1.788103	0.000000	104.975	104.479	0.000000	1.062529	4.427560
	5.316667	1.787947	0.000000	104.995	104.495	0.000000	1.062530	4.427880
	5.318000	1.787687	0.000000	105.012	104.516	0.000000	1.062530	4.428094
[...]
	59.3267	4.491910	0.000000	300	299.97	0.000000	1.065468	2.825195
	59.3333	4.491910	0.000000	300	299.97	0.000000	1.065468	2.825195
	59.34	4.491910	0.000000	300	299.97	0.000000	1.065468	2.825195
	59.3467	4.491911	0.000000	300	299.975	0.000000	1.065468	2.825195
	59.3533	4.492124	0.000000	300	299.975	0.000000	1.065468	2.825408
	59.36	4.491804	0.000000	300	299.97	0.000000	1.065468	2.825088
	59.3667	4.491697	0.000000	300	299.97	0.000000	1.065468	2.824982
	59.3733	4.491698	0.000000	300	299.975	0.000000	1.065468	2.824982
	59.38	4.492230	0.000000	300	299.975	0.000000	1.065468	2.825515
	59.3867	4.492337	0.000000	300	299.97	0.000000	1.065468	2.825621
	59.3933	4.492123	0.000000	300	299.97	0.000000	1.065468	2.825408
	59.4	4.492017	0.000000	300	299.975	0.000000	1.065468	2.825301
	59.4067	4.492017	0.000000	300	299.975	0.000000	1.065468	2.825301
	59.4133	4.492230	0.000000	300	299.975	0.000000	1.065468	2.825515
	59.42	4.492230	0.000000	300	299.97	0.000000	1.065468	2.825514
	59.4267	4.492443	0.000000	300	299.975	0.000000	1.065468	2.825728
	59.4333	4.492124	0.000000	300	299.975	0.000000	1.065468	2.825408
	59.44	4.491804	0.000000	300	299.97	0.000000	1.065468	2.825088
	59.4467	4.491378	0.000000	300	299.97	0.000000	1.065468	2.824662
	59.4533	4.491271	0.000000	300	299.97	0.000000	1.065468	2.824555
	59.46	4.491484	0.000000	300	299.97	0.000000	1.065468	2.824769
	59.4667	4.492124	0.000000	300	299.975	0.000000	1.065468	2.825408
	59.4733	4.492017	0.000000	300	299.97	0.000000	1.065468	2.825301
	59.48	4.491804	0.000000	300	299.97	0.000000	1.065468	2.825088
	59.4867	4.491591	0.000000	300	299.97	0.000000	1.065468	2.824875
	59.4933	4.491804	0.000000	300	299.97	0.000000	1.065468	2.825088
	59.5	4.491804	0.000000	300	299.97	0.000000	1.065468	2.825088
	59.5067	4.491484	0.000000	300	299.97	0.000000	1.065468	2.824769
	59.5133	4.491165	0.000000	300	299.97	0.000000	1.065468	2.824449
	59.52	4.491378	0.000000	300	299.97	0.000000	1.065468	2.824662
	59.5267	4.491378	0.000000	300	299.97	0.000000	1.065468	2.824662
	59.5333	4.491378	0.000000	300	299.975	0.000000	1.065468	2.824662
	59.54	4.491165	0.000000	300	299.97	0.000000	1.065468	2.824449
	59.5467	4.491058	0.000000	300	299.97	0.000000	1.065468	2.824342
	59.5533	4.490845	0.000000	300	299.97	0.000000	1.065468	2.824129
	59.56	4.490952	0.000000	300	299.975	0.000000	1.065468	2.824236
	59.5667	4.491058	0.000000	300	299.97	0.000000	1.065468	2.824342
	59.5733	4.490738	0.000000	300	299.97	0.000000	1.065468	2.824023
	59.58	4.490632	0.000000	300	299.97	0.000000	1.065468	2.823916
	59.5867	4.490952	0.000000	300	299.975	0.000000	1.065468	2.824236
	59.5933	4.490952	0.000000	300	299.975	0.000000	1.065468	2.824236
	59.6	4.490951	0.000000	300	299.97	0.000000	1.065468	2.824236
	59.6067	4.491271	0.000000	300	299.966	0.000000	1.065468	2.824555
	59.6133	4.491058	0.000000	300	299.97	0.000000	1.065468	2.824342
	59.62	4.491058	0.000000	300	299.97	0.000000	1.065468	2.824342
	59.6267	4.491165	0.000000	300	299.97	0.000000	1.065468	2.824449
	59.6333	4.490952	0.000000	300	299.975	0.000000	1.065468	2.824236
	59.64	4.490952	0.000000	300	299.975	0.000000	1.065468	2.824236
	59.6467	4.490845	0.000000	300	299.97	0.000000	1.065468	2.824129
	59.6533	4.490845	0.000000	300	299.97	0.000000	1.065468	2.824129
	59.66	4.491058	0.000000	300	299.975	0.000000	1.065468	2.824343
	59.6667	4.491271	0.000000	300	299.97	0.000000	1.065468	2.824555
	59.6733	4.491165	0.000000	300	299.97	0.000000	1.065468	2.824449
	59.68	4.491058	0.000000	300	299.975	0.000000	1.065468	2.824343
	59.6867	4.491058	0.000000	300	299.97	0.000000	1.065468	2.824342
	59.6933	4.491591	0.000000	300	299.97	0.000000	1.065468	2.824875
	59.7	4.491911	0.000000	300	299.975	0.000000	1.065468	2.825195
	59.7067	4.492124	0.000000	300	299.975	0.000000	1.065468	2.825408
	59.7133	4.492337	0.000000	300	299.97	0.000000	1.065468	2.825621
	59.72	4.492550	0.000000	300	299.975	0.000000	1.065468	2.825834
	59.7267	4.492337	0.000000	300	299.975	0.000000	1.065468	2.825621
	59.7333	4.492443	0.000000	300	299.97	0.000000	1.065468	2.825727
	59.74	4.492550	0.000000	300	299.97	0.000000	1.065468	2.825834
	59.7467	4.492443	0.000000	300	299.97	0.000000	1.065468	2.825727
	59.7533	4.492550	0.000000	300	299.975	0.000000	1.065468	2.825834
	59.76	4.492763	0.000000	300	299.97	0.000000	1.065468	2.826047
	59.7667	4.492656	0.000000	300	299.975	0.000000	1.065468	2.825941
	59.7733	4.492869	0.000000	300	299.97	0.000000	1.065468	2.826154
	59.78	4.492869	0.000000	300	299.97	0.000000	1.065468	2.826154
	59.7867	4.492656	0.000000	300	299.97	0.000000	1.065468	2.825941
	59.7933	4.492870	0.000000	300	299.975	0.000000	1.065468	2.826154
	59.8	4.492763	0.000000	300	299.97	0.000000	1.065468	2.826047
	59.8067	4.492230	0.000000	300	299.97	0.000000	1.065468	2.825514
	59.8133	4.492443	0.000000	300	299.975	0.000000	1.065468	2.825728
	59.82	4.492763	0.000000	300	299.975	0.000000	1.065468	2.826047
	59.8267	4.492656	0.000000	300	299.975	0.000000	1.065468	2.825941
	59.8333	4.492443	0.000000	300	299.97	0.000000	1.065468	2.825727
	59.84	4.492550	0.000000	300	299.975	0.000000	1.065468	2.825834
	59.8467	4.492550	0.000000	300	299.97	0.000000	1.065468	2.825834
	59.8533	4.492656	0.000000	300	299.975	0.000000	1.065468	2.825941
	59.86	4.492656	0.000000	300	299.97	0.000000	1.065468	2.825941
	59.8667	4.492763	0.000000	300	299.97	0.000000	1.065468	2.826047
	59.8733	4.492763	0.000000	300	299.975	0.000000	1.065468	2.826047
	59.88	4.492550	0.000000	300	299.975	0.000000	1.065468	2.825834
	59.8867	4.492656	0.000000	300	299.975	0.000000	1.065468	2.825941
	59.8933	4.492763	0.000000	300	299.97	0.000000	1.065468	2.826047
	59.9	4.492550	0.000000	300	299.97	0.000000	1.065468	2.825834
	59.9067	4.492443	0.000000	300	299.97	0.000000	1.065468	2.825727
	59.9133	4.492017	0.000000	300	299.97	0.000000	1.065468	2.825301
	59.92	4.491804	0.000000	300	299.975	0.000000	1.065468	2.825088
	59.9267	4.492123	0.000000	300	299.97	0.000000	1.065468	2.825408
	59.9333	4.492017	0.000000	300	299.97	0.000000	1.065468	2.825301
	59.94	4.491804	0.000000	300	299.975	0.000000	1.065468	2.825088
	59.9467	4.491698	0.000000	300	299.975	0.000000	1.065468	2.824982
	59.9533	4.491804	0.000000	300	299.975	0.000000	1.065468	2.825088
	59.96	4.492123	0.000000	300	299.97	0.000000	1.065468	2.825408
	59.9667	4.492550	0.000000	300	299.966	0.000000	1.065468	2.825834
	59.9733	4.492763	0.000000	300	299.975	0.000000	1.065468	2.826047
	59.98	4.492656	0.000000	300	299.975	0.000000	1.065468	2.825941
	59.9867	4.492763	0.000000	300	299.97	0.000000	1.065468	2.826047
	59.9933	4.493189	0.000000	300	299.97	0.000000	1.065468	2.826473
	60	4.493828	0.000000	300	299.97	0.000000	1.065468	2.827113
	60.0067	4.493722	0.000000	300	299.975	0.000000	1.065468	2.827006
	60.0133	4.493509	0.000000	300	299.975	0.000000	1.065468	2.826793
	60.02	4.493509	0.000000	300	299.975	0.000000	1.065468	2.826793
	60.0267	4.493935	0.000000	300	299.975	0.000000	1.065468	2.827219
	60.0333	4.493722	0.000000	300	299.975	0.000000	1.065468	2.827006
	60.04	4.493722	0.000000	300	299.966	0.000000	1.065468	2.827006
	60.0467	4.494042	0.000000	300	299.975	0.000000	1.065468	2.827326
	60.0533	4.494254	0.000000	300	299.97	0.000000	1.065468	2.827539
	60.06	4.494148	0.000000	300	299.975	0.000000	1.065468	2.827432
	60.0667	4.493935	0.000000	300	299.97	0.000000	1.065468	2.827219
	60.0733	4.493828	0.000000	300	299.975	0.000000	1.065468	2.827113
	60.08	4.493828	0.000000	300	299.975	0.000000	1.065468	2.827113
	60.0867	4.494254	0.000000	300	299.97	0.000000	1.065468	2.827539
	60.0933	4.494254	0.000000	300	299.97	0.000000	1.065468	2.827539
	60.1	4.494254	0.000000	300	299.97	0.000000	1.065468	2.827539
	60.1067	4.494254	0.000000	300	299.97	0.000000	1.065468	2.827539
	60.1133	4.494041	0.000000	300	299.97	0.000000	1.065468	2.827326
	60.12	4.493935	0.000000	300	299.97	0.000000	1.065468	2.827219
	60.1267	4.494254	0.000000	300	299.97	0.000000	1.065468	2.827539
	60.1333	4.494042	0.000000	300	299.975	0.000000	1.065468	2.827326
	60.14	4.494148	0.000000	300	299.97	0.000000	1.065468	2.827432
	60.1467	4.494255	0.000000	300	299.975	0.000000	1.065468	2.827539
	60.1533	4.494041	0.000000	300	299.97	0.000000	1.065468	2.827326
	60.16	4.494148	0.000000	300	299.97	0.000000	1.065468	2.827432
	60.1667	4.494361	0.000000	300	299.97	0.000000	1.065468	2.827645
	60.1733	4.494361	0.000000	300	299.975	0.000000	1.065468	2.827645
	60.18	4.494787	0.000000	300	299.97	0.000000	1.065468	2.828071
	60.1867	4.494680	0.000000	300	299.966	0.000000	1.065468	2.827965
	60.1933	4.494361	0.000000	300	299.97	0.000000	1.065468	2.827645
	60.2	4.494681	0.000000	300	299.97	0.000000	1.065468	2.827965
	60.2067	4.495213	0.000000	300	299.97	0.000000	1.065468	2.828498
	60.2133	4.495853	0.000000	300	299.97	0.000000	1.065468	2.829137
	60.22	4.495853	0.000000	300	299.97	0.000000	1.065468	2.829137
	60.2267	4.495959	0.000000	300	299.97	0.000000	1.065468	2.829243
	60.2333	4.495640	0.000000	300	299.97	0.000000	1.065468	2.828924
	60.24	4.495959	0.000000	300	299.975	0.000000	1.065468	2.829244
	60.2467	4.495746	0.000000	300	299.975	0.000000	1.065468	2.829031
	60.2533	4.495426	0.000000	300	299.97	0.000000	1.065468	2.828711
	60.26	4.495746	0.000000	300	299.97	0.000000	1.065468	2.829030
	60.2667	4.495640	0.000000	300	299.97	0.000000	1.065468	2.828924
	60.2733	4.495213	0.000000	300	299.97	0.000000	1.065468	2.828498
	60.28	4.494894	0.000000	300	299.97	0.000000	1.065468	2.828178
	60.2867	4.495107	0.000000	300	299.97	0.000000	1.065468	2.828391
	60.2933	4.495853	0.000000	300	299.97	0.000000	1.065468	2.829137
	60.3	4.495959	0.000000	300	299.966	0.000000	1.065468	2.829243
	60.3067	4.495640	0.000000	300	299.97	0.000000	1.065468	2.828924
	60.3133	4.495533	0.000000	300	299.97	0.000000	1.065468	2.828817
	60.32	4.495426	0.000000	300	299.97	0.000000	1.065468	2.828711
	60.3267	4.495320	0.000000	300	299.97	0.000000	1.065468	2.828604
	60.3333	4.495426	0.000000	300	299.97	0.000000	1.065468	2.828711
	60.34	4.495426	0.000000	300	299.966	0.000000	1.065468	2.828711
	60.3467	4.495533	0.000000	300	299.975	0.000000	1.065468	2.828818
	60.3533	4.495853	0.000000	300	299.97	0.000000	1.065468	2.829137
	60.36	4.496492	0.000000	300	299.975	0.000000	1.065468	2.829776
	60.3667	4.497025	0.000000	300	299.975	0.000000	1.065468	2.830309
	60.3733	4.497664	0.000000	300	299.966	0.000000	1.065468	2.830948
	60.38	4.498303	0.000000	300	299.97	0.000000	1.065468	2.831588
	60.3867	4.499049	0.000000	300	299.975	0.000000	1.065468	2.832334
	60.3933	4.499901	0.000000	300	299.97	0.000000	1.065468	2.833186
	60.4	4.500434	0.000000	300	299.975	0.000000	1.065468	2.833719
	60.4067	4.500967	0.000000	300	299.97	0.000000	1.065468	2.834251
	60.4133	4.501713	0.000000	300	299.97	0.000000	1.065468	2.834997
	60.42	4.502459	0.000000	300	299.97	0.000000	1.065468	2.835743
	60.4267	4.502885	0.000000	300	299.97	0.000000	1.065468	2.836169
	60.4333	4.503098	0.000000	300	299.97	0.000000	1.065468	2.836382
	60.44	4.503524	0.000000	300	299.975	0.000000	1.065468	2.836809
	60.4467	4.504163	0.000000	300	299.975	0.000000	1.065468	2.837448
	60.4533	4.504696	0.000000	300	299.975	0.000000	1.065468	2.837981
	60.46	4.505442	0.000000	300	299.97	0.000000	1.065468	2.838726
	60.4667	4.506507	0.000000	300	299.966	0.000000	1.065468	2.839791
	60.4733	4.507253	0.000000	300	299.97	0.000000	1.065468	2.840537
	60.48	4.507999	0.000000	300	299.975	0.000000	1.065468	2.841283
	60.4867	4.508638	0.000000	300	299.975	0.000000	1.065468	2.841923
	60.4933	4.509384	0.000000	300	299.975	0.000000	1.065468	2.842669
	60.5	4.509704	0.000000	300	299.966	0.000000	1.065468	2.842988
	60.5067	4.510023	0.000000	300	299.97	0.000000	1.065468	2.843308
	60.5133	4.510556	0.000000	300	299.97	0.000000	1.065468	2.843840
	60.52	4.511408	0.000000	300	299.97	0.000000	1.065468	2.844693
	60.5267	4.511728	0.000000	300	299.97	0.000000	1.065468	2.845012
	60.5333	4.512154	0.000000	300	299.97	0.000000	1.065468	2.845439
	60.54	4.512687	0.000000	300	299.97	0.000000	1.065468	2.845971
	60.5467	4.513220	0.000000	300	299.97	0.000000	1.065468	2.846504
	60.5533	4.513433	0.000000	300	299.975	0.000000	1.065468	2.846717
	60.56	4.513326	0.000000	300	299.97	0.000000	1.065468	2.846611
	60.5667	4.513539	0.000000	300	299.97	0.000000	1.065468	2.846824
	60.5733	4.513646	0.000000	300	299.975	0.000000	1.065468	2.846930
	60.58	4.514072	0.000000	300	299.97	0.000000	1.065468	2.847356
	60.5867	4.514392	0.000000	300	299.975	0.000000	1.065468	2.847676
	60.5933	4.514498	0.000000	300	299.97	0.000000	1.065468	2.847783
	60.6	4.514925	0.000000	300	299.97	0.000000	1.065468	2.848209
	60.6067	4.514925	0.000000	300	299.97	0.000000	1.065468	2.848209
	60.6133	4.515351	0.000000	300	299.97	0.000000	1.065468	2.848635
	60.62	4.515777	0.000000	300	299.97	0.000000	1.065468	2.849061
	60.6267	4.515457	0.000000	300	299.97	0.000000	1.065468	2.848742
	60.6333	4.515138	0.000000	300	299.97	0.000000	1.065468	2.848422
	60.64	4.515138	0.000000	300	299.97	0.000000	1.065468	2.848422
	60.6467	4.515777	0.000000	300	299.97	0.000000	1.065468	2.849061
	60.6533	4.515990	0.000000	300	299.97	0.000000	1.065468	2.849274
	60.66	4.516203	0.000000	300	299.975	0.000000	1.065468	2.849488
	60.6667	4.516203	0.000000	300	299.975	0.000000	1.065468	2.849488
	60.6733	4.516310	0.000000	300	299.975	0.000000	1.065468	2.849594
	60.68	4.516203	0.000000	300	299.97	0.000000	1.065468	2.849487
	60.6867	4.516523	0.000000	300	299.975	0.000000	1.065468	2.849807
	60.6933	4.516523	0.000000	300	299.975	0.000000	1.065468	2.849807
	60.7	4.516629	0.000000	300	299.975	0.000000	1.065468	2.849914
	60.7067	4.516736	0.000000	300	299.975	0.000000	1.065468	2.850020
	60.7133	4.516843	0.000000	300	299.975	0.000000	1.065468	2.850127
	60.72	4.517162	0.000000	300	299.97	0.000000	1.065468	2.850446
	60.7267	4.517695	0.000000	300	299.975	0.000000	1.065468	2.850979
	60.7333	4.517588	0.000000	300	299.975	0.000000	1.065468	2.850873
	60.74	4.517056	0.000000	300	299.975	0.000000	1.065468	2.850340
	60.7467	4.516629	0.000000	300	299.975	0.000000	1.065468	2.849914
	60.7533	4.516523	0.000000	300	299.975	0.000000	1.065468	2.849807
	60.76	4.516097	0.000000	300	299.97	0.000000	1.065468	2.849381
	60.7667	4.515564	0.000000	300	299.97	0.000000	1.065468	2.848848
	60.7733	4.515244	0.000000	300	299.975	0.000000	1.065468	2.848529
	60.78	4.515138	0.000000	300	299.97	0.000000	1.065468	2.848422
	60.7867	4.515138	0.000000	300	299.975	0.000000	1.065468	2.848422
	60.7933	4.515351	0.000000	300	299.975	0.000000	1.065468	2.848635
	60.8	4.515138	0.000000	300	299.97	0.000000	1.065468	2.848422
	60.8067	4.514712	0.000000	300	299.975	0.000000	1.065468	2.847996
	60.8133	4.514499	0.000000	300	299.975	0.000000	1.065468	2.847783
	60.82	4.513859	0.000000	300	299.97	0.000000	1.065468	2.847143
	60.8267	4.513540	0.000000	300	299.975	0.000000	1.065468	2.846824
	60.8333	4.513327	0.000000	300	299.975	0.000000	1.065468	2.846611
	60.84	4.513326	0.000000	300	299.97	0.000000	1.065468	2.846611
	60.8467	4.512794	0.000000	300	299.97	0.000000	1.065468	2.846078
	60.8533	4.512794	0.000000	300	299.975	0.000000	1.065468	2.846078
	60.86	4.512580	0.000000	300	299.97	0.000000	1.065468	2.845865
	60.8667	4.512368	0.000000	300	299.975	0.000000	1.065468	2.845652
	60.8733	4.512368	0.000000	300	299.975	0.000000	1.065468	2.845652
	60.88	4.512261	0.000000	300	299.975	0.000000	1.065468	2.845545
	60.8867	4.511835	0.000000	300	299.975	0.000000	1.065468	2.845119
	60.8933	4.511515	0.000000	300	299.97	0.000000	1.065468	2.844799
	60.9	4.511089	0.000000	300	299.975	0.000000	1.065468	2.844373
	60.9067	4.511089	0.000000	300	299.97	0.000000	1.065468	2.844373
	60.9133	4.510556	0.000000	300	299.975	0.000000	1.065468	2.843841
	60.92	4.510343	0.000000	300	299.97	0.000000	1.065468	2.843627
	60.9267	4.510024	0.000000	300	299.975	0.000000	1.065468	2.843308
	60.9333	4.509917	0.000000	300	299.97	0.000000	1.065468	2.843201
	60.94	4.509810	0.000000	300	299.97	0.000000	1.065468	2.843095
	60.9467	4.509704	0.000000	300	299.975	0.000000	1.065468	2.842988
	60.9533	4.509597	0.000000	300	299.975	0.000000	1.065468	2.842882
	60.96	4.509597	0.000000	300	299.97	0.000000	1.065468	2.842881
	60.9667	4.509278	0.000000	300	299.975	0.000000	1.065468	2.842562
	60.9733	4.509064	0.000000	300	299.97	0.000000	1.065468	2.842349
	60.98	4.508958	0.000000	300	299.97	0.000000	1.065468	2.842242
	60.9867	4.508851	0.000000	300	299.97	0.000000	1.065468	2.842136
	60.9933	4.508958	0.000000	300	299.97	0.000000	1.065468	2.842242
	61	4.508745	0.000000	300	299.97	0.000000	1.065468	2.842029
	61.0067	4.508212	0.000000	300	299.975	0.000000	1.065468	2.841497
	61.0133	4.507893	0.000000	300	299.975	0.000000	1.065468	2.841177
	61.02	4.507573	0.000000	300	299.97	0.000000	1.065468	2.840857
	61.0267	4.507786	0.000000	300	299.97	0.000000	1.065468	2.841070
	61.0333	4.507680	0.000000	300	299.975	0.000000	1.065468	2.840964
	61.04	4.507573	0.000000	300	299.975	0.000000	1.065468	2.840857
	61.0467	4.507573	0.000000	300	299.975	0.000000	1.065468	2.840857
	61.0533	4.507466	0.000000	300	299.975	0.000000	1.065468	2.840751
	61.06	4.507360	0.000000	300	299.97	0.000000	1.065468	2.840644
	61.0667	4.507040	0.000000	300	299.975	0.000000	1.065468	2.840325
	61.0733	4.506827	0.000000	300	299.975	0.000000	1.065468	2.840111
	61.08	4.506721	0.000000	300	299.975	0.000000	1.065468	2.840005
	61.0867	4.506507	0.000000	300	299.97	0.000000	1.065468	2.839792
	61.0933	4.506188	0.000000	300	299.97	0.000000	1.065468	2.839472
	61.1	4.505975	0.000000	300	299.975	0.000000	1.065468	2.839259
	61.1067	4.505975	0.000000	300	299.97	0.000000	1.065468	2.839259
	61.1133	4.505975	0.000000	300	299.975	0.000000	1.065468	2.839259
	61.12	4.505548	0.000000	300	299.97	0.000000	1.065468	2.838833
	61.1267	4.505442	0.000000	300	299.97	0.000000	1.065468	2.838726
	61.1333	4.505655	0.000000	300	299.975	0.000000	1.065468	2.838939
	61.14	4.505655	0.000000	300	299.975	0.000000	1.065468	2.838939
	61.1467	4.505229	0.000000	300	299.97	0.000000	1.065468	2.838513
	61.1533	4.505229	0.000000	300	299.975	0.000000	1.065468	2.838513
	61.16	4.505335	0.000000	300	299.975	0.000000	1.065468	2.838620
	61.1667	4.505016	0.000000	300	299.97	0.000000	1.065468	2.838300
	61.1733	4.504696	0.000000	300	299.97	0.000000	1.065468	2.837980
	61.18	4.504270	0.000000	300	299.975	0.000000	1.065468	2.837554
	61.1867	4.504057	0.000000	300	299.975	0.000000	1.065468	2.837341
	61.1933	4.503950	0.000000	300	299.97	0.000000	1.065468	2.837235
	61.2	4.504057	0.000000	300	299.97	0.000000	1.065468	2.837341
	61.2067	4.504163	0.000000	300	299.975	0.000000	1.065468	2.837448
	61.2133	4.504057	0.000000	300	299.97	0.000000	1.065468	2.837341
	61.22	4.503631	0.000000	300	299.975	0.000000	1.065468	2.836915
	61.2267	4.503205	0.000000	300	299.975	0.000000	1.065468	2.836489
	61.2333	4.502672	0.000000	300	299.975	0.000000	1.065468	2.835956
	61.24	4.502565	0.000000	300	299.975	0.000000	1.065468	2.835850
	61.2467	4.502565	0.000000	300	299.975	0.000000	1.065468	2.835850
	61.2533	4.502352	0.000000	300	299.975	0.000000	1.065468	2.835637
	61.26	4.502245	0.000000	300	299.97	0.000000	1.065468	2.835530
	61.2667	4.501926	0.000000	300	299.97	0.000000	1.065468	2.835210
	61.2733	4.501819	0.000000	300	299.975	0.000000	1.065468	2.835104
	61.28	4.501393	0.000000	300	299.975	0.000000	1.065468	2.834678
	61.2867	4.501500	0.000000	300	299.975	0.000000	1.065468	2.834784
	61.2933	4.501287	0.000000	300	299.97	0.000000	1.065468	2.834571
	61.3	4.500861	0.000000	300	299.975	0.000000	1.065468	2.834145
	61.3067	4.500328	0.000000	300	299.975	0.000000	1.065468	2.833612
	61.3133	4.500115	0.000000	300	299.97	0.000000	1.065468	2.833399
	61.32	4.500008	0.000000	300	299.975	0.000000	1.065468	2.833292
	61.3267	4.500115	0.000000	300	299.975	0.000000	1.065468	2.833399
	61.3333	4.500008	0.000000	300	299.975	0.000000	1.065468	2.833292
	61.34	4.499902	0.000000	300	299.975	0.000000	1.065468	2.833186
	61.3467	4.499475	0.000000	300	299.97	0.000000	1.065468	2.832760
	61.3533	4.499262	0.000000	300	299.975	0.000000	1.065468	2.832547
	61.36	4.499369	0.000000	300	299.975	0.000000	1.065468	2.832653
	61.3667	4.499049	0.000000	300	299.97	0.000000	1.065468	2.832333
	61.3733	4.498730	0.000000	300	299.975	0.000000	1.065468	2.832014
	61.38	4.498410	0.000000	300	299.975	0.000000	1.065468	2.831694