File: demo_data/sapphire_103-303-2.txt
Filename:	C:\Program Files (x86)\PerkinElmer\Pyris\data\sapphire_103-303-2.ds8d
Operator ID:
Sample ID:	Sapphire
Comment:
Serial Number:
Data Collected:	7/16/2024 7:24:39 PM
Sample Weight:	23.400 mg
Display Weight:	23.400
Validation
Validated:	No
By:
Date:
Calibration Information
Filename:	C:\Program Files (x86)\PerkinElmer\Pyris\Calibrations\Calib100to400_07162024-1.ds8c
Date/Time:	7/16/2024 3:47:43 PM
Initial Conditions
Temperature:	 103.00 °C
Purge Gas:
Purge Gas Rate:
Baseline Filename:
End Condition:	Go To Load
Total Points in Run:	44947
Method Steps:
Pre-Run Actions
Switch the Gas to Nitrogen at 20.0 ml/min
	Action occurs Immediately
Start the Run
	Action occurs Immediately
1)	Hold for 5.0 min at 103.00°C

2)	Heat from 103.00°C to 113.00°C at 15.00°C/min

3)	Hold for 2.0 min at 113.00°C

4)	Heat from 113.00°C to 123.00°C at 15.00°C/min

5)	Hold for 2.0 min at 123.00°C

6)	Heat from 123.00°C to 133.00°C at 15.00°C/min

7)	Hold for 2.0 min at 133.00°C

8)	Heat from 133.00°C to 143.00°C at 15.00°C/min

9)	Hold for 2.0 min at 143.00°C

10)	Heat from 143.00°C to 153.00°C at 15.00°C/min

11)	Hold for 2.0 min at 153.00°C

12)	Heat from 153.00°C to 163.00°C at 15.00°C/min

13)	Hold for 2.0 min at 163.00°C

14)	Heat from 163.00°C to 173.00°C at 15.00°C/min

15)	Hold for 2.0 min at 173.00°C

16)	Heat from 173.00°C to 183.00°C at 15.00°C/min

17)	Hold for 2.0 min at 183.00°C

18)	Heat from 183.00°C to 193.00°C at 15.00°C/min

19)	Hold for 2.0 min at 193.00°C

20)	Heat from 193.00°C to 203.00°C at 15.00°C/min

21)	Hold for 2.0 min at 203.00°C

22)	Heat from 203.00°C to 213.00°C at 15.00°C/min

23)	Hold for 2.0 min at 213.00°C

24)	Heat from 213.00°C to 223.00°C at 15.00°C/min

25)	Hold for 2.0 min at 223.00°C

26)	Heat from 223.00°C to 233.00°C at 15.00°C/min

27)	Hold for 2.0 min at 233.00°C

28)	Heat from 233.00°C to 243.00°C at 15.00°C/min

29)	Hold for 2.0 min at 243.00°C

30)	Heat from 243.00°C to 253.00°C at 15.00°C/min

31)	Hold for 2.0 min at 253.00°C

32)	Heat from 253.00°C to 263.00°C at 15.00°C/min

33)	Hold for 2.0 min at 263.00°C

34)	Heat from 263.00°C to 273.00°C at 15.00°C/min

35)	Hold for 2.0 min at 273.00°C

36)	Heat from 273.00°C to 283.00°C at 15.00°C/min

37)	Hold for 2.0 min at 283.00°C

38)	Heat from 283.00°C to 293.00°C at 15.00°C/min

39)	Hold for 2.0 min at 293.00°C

40)	Heat from 293.00°C to 303.00°C at 15.00°C/min

41)	Hold for 3.0 min at 303.00°C

1) DSC 8500 Isothermal
	Time     	Unsubtracted	Baseline     	Program     	Sample     	Approx.     	Heat Flow     	Uncorrected
	          	Heat Flow     	Heat Flow     	Temperature	Temperature	Gas Flow     	Calibration	Heat Flow
	0.000000	66.0172	0.000000	103	100.766	0.000000	1.062474	68.3967
	0.016667	56.0036	0.000000	103	102.054	0.000000	1.062493	57.0347
	0.033333	55.9055	0.000000	103	102.45	0.000000	1.062499	56.8655
	0.050000	56.4931	0.000000	103	102.6	0.000000	1.062501	57.4663
	0.066667	53.8593	0.000000	103	102.691	0.000000	1.062503	54.8693
	0.083333	48.259	0.000000	103	102.758	0.000000	1.062504	49.2714
	0.100000	41.1807	0.000000	103	102.812	0.000000	1.062504	42.1919
	0.116667	33.9004	0.000000	103	102.85	0.000000	1.062505	34.9627
	0.133333	27.1774	0.000000	103	102.879	0.000000	1.062505	28.3655
	0.150000	21.3661	0.000000	103	102.9	0.000000	1.062506	22.7308
	0.166667	16.5577	0.000000	103	102.916	0.000000	1.062506	18.1153
	0.183333	12.6994	0.000000	103	102.925	0.000000	1.062506	14.4383
	0.200000	9.669608	0.000000	103	102.933	0.000000	1.062506	11.5634
	0.216667	7.328284	0.000000	103	102.941	0.000000	1.062506	9.346762
	0.233333	5.540496	0.000000	103	102.945	0.000000	1.062506	7.655252
	0.250000	4.186627	0.000000	103	102.95	0.000000	1.062506	6.373870
	0.266667	3.167737	0.000000	103	102.954	0.000000	1.062507	5.408690
	0.283333	2.404585	0.000000	103	102.954	0.000000	1.062507	4.684804
	0.300000	1.834917	0.000000	103	102.954	0.000000	1.062507	4.143563
	0.316667	1.410779	0.000000	103	102.958	0.000000	1.062507	3.739704
	0.333333	1.095939	0.000000	103	102.958	0.000000	1.062507	3.439121
	0.350000	0.861964	0.000000	103	102.958	0.000000	1.062507	3.215464
	0.366667	0.687912	0.000000	103	102.958	0.000000	1.062507	3.049181
	0.383333	0.558734	0.000000	103	102.962	0.000000	1.062507	2.925825
	0.400000	0.463180	0.000000	103	102.962	0.000000	1.062507	2.834130
	0.416667	0.392632	0.000000	103	102.962	0.000000	1.062507	2.766130
	0.433333	0.339412	0.000000	103	102.962	0.000000	1.062507	2.715130
	0.450000	0.299483	0.000000	103	102.962	0.000000	1.062507	2.676879
	0.466667	0.269746	0.000000	103	102.962	0.000000	1.062507	2.647979
	0.483333	0.247013	0.000000	103	102.962	0.000000	1.062507	2.626091
	0.500000	0.230093	0.000000	103	102.962	0.000000	1.062507	2.609623
	0.516667	0.217662	0.000000	103	102.962	0.000000	1.062507	2.597191
	0.533333	0.208418	0.000000	103	102.962	0.000000	1.062507	2.587947
	0.550000	0.201406	0.000000	103	102.962	0.000000	1.062507	2.580935
	0.566667	0.196093	0.000000	103	102.962	0.000000	1.062507	2.575622
	0.583333	0.192056	0.000000	103	102.962	0.000000	1.062507	2.571585
	0.600000	0.188868	0.000000	103	102.962	0.000000	1.062507	2.568397
	0.616667	0.186212	0.000000	103	102.962	0.000000	1.062507	2.565741
	0.633333	0.183981	0.000000	103	102.962	0.000000	1.062507	2.563510
	0.650000	0.182068	0.000000	103	102.962	0.000000	1.062507	2.561597
	0.666667	0.180368	0.000000	103	102.962	0.000000	1.062507	2.559897
	0.683333	0.178987	0.000000	103	102.962	0.000000	1.062507	2.558516
	0.700000	0.177818	0.000000	103	102.966	0.000000	1.062507	2.557347
	0.716667	0.176862	0.000000	103	102.962	0.000000	1.062507	2.556391
	0.733333	0.176012	0.000000	103	102.962	0.000000	1.062507	2.555541
	0.750000	0.175587	0.000000	103	102.962	0.000000	1.062507	2.555116
	0.766667	0.175268	0.000000	103	102.962	0.000000	1.062507	2.554797
	0.783333	0.174843	0.000000	103	102.962	0.000000	1.062507	2.554372
	0.800000	0.174312	0.000000	103	102.962	0.000000	1.062507	2.553841
	0.816667	0.173780	0.000000	103	102.962	0.000000	1.062507	2.553310
	0.833333	0.173037	0.000000	103	102.962	0.000000	1.062507	2.552566
	0.850000	0.172505	0.000000	103	102.962	0.000000	1.062507	2.552035
	0.866667	0.171655	0.000000	103	102.962	0.000000	1.062507	2.551185
	0.883333	0.171124	0.000000	103	102.962	0.000000	1.062507	2.550653
	0.900000	0.170805	0.000000	103	102.962	0.000000	1.062507	2.550335
	0.916667	0.170593	0.000000	103	102.962	0.000000	1.062507	2.550122
	0.933333	0.170168	0.000000	103	102.962	0.000000	1.062507	2.549697
	0.950000	0.169849	0.000000	103	102.962	0.000000	1.062507	2.549378
	0.966667	0.169530	0.000000	103	102.962	0.000000	1.062507	2.549060
	0.983333	0.169424	0.000000	103	102.962	0.000000	1.062507	2.548953
	1.000000	0.168999	0.000000	103	102.962	0.000000	1.062507	2.548528
	1.016667	0.168574	0.000000	103	102.962	0.000000	1.062507	2.548103
	1.033333	0.168149	0.000000	103	102.962	0.000000	1.062507	2.547678
	1.050000	0.167618	0.000000	103	102.962	0.000000	1.062507	2.547147
	1.066667	0.166874	0.000000	103	102.962	0.000000	1.062507	2.546403
	1.083333	0.166343	0.000000	103	102.962	0.000000	1.062507	2.545872
	1.100000	0.166024	0.000000	103	102.962	0.000000	1.062507	2.545553
	1.116667	0.165918	0.000000	103	102.962	0.000000	1.062507	2.545447
	1.133333	0.165812	0.000000	103	102.962	0.000000	1.062507	2.545341
	1.150000	0.165387	0.000000	103	102.962	0.000000	1.062507	2.544916
	1.166667	0.165068	0.000000	103	102.962	0.000000	1.062507	2.544597
	1.183333	0.164962	0.000000	103	102.962	0.000000	1.062507	2.544491
	1.200000	0.164643	0.000000	103	102.962	0.000000	1.062507	2.544172
	1.216667	0.164324	0.000000	103	102.962	0.000000	1.062507	2.543853
	1.233333	0.163899	0.000000	103	102.962	0.000000	1.062507	2.543428
	1.250000	0.163474	0.000000	103	102.962	0.000000	1.062507	2.543003
	1.266667	0.163155	0.000000	103	102.962	0.000000	1.062507	2.542685
	1.283333	0.163049	0.000000	103	102.962	0.000000	1.062507	2.542578
	1.300000	0.162943	0.000000	103	102.962	0.000000	1.062507	2.542472
	1.316667	0.162837	0.000000	103	102.962	0.000000	1.062507	2.542366
	1.333333	0.162837	0.000000	103	102.962	0.000000	1.062507	2.542366
	1.350000	0.162943	0.000000	103	102.962	0.000000	1.062507	2.542472
	1.366667	0.162943	0.000000	103	102.962	0.000000	1.062507	2.542472
	1.383333	0.162837	0.000000	103	102.962	0.000000	1.062507	2.542366
	1.400000	0.162943	0.000000	103	102.962	0.000000	1.062507	2.542472
	1.416667	0.163049	0.000000	103	102.962	0.000000	1.062507	2.542578
	1.433333	0.163049	0.000000	103	102.962	0.000000	1.062507	2.542578
	1.450000	0.162837	0.000000	103	102.962	0.000000	1.062507	2.542366
	1.466667	0.162518	0.000000	103	102.962	0.000000	1.062507	2.542047
	1.483333	0.162199	0.000000	103	102.962	0.000000	1.062507	2.541728
	1.500000	0.161987	0.000000	103	102.962	0.000000	1.062507	2.541516
	1.516667	0.161987	0.000000	103	102.962	0.000000	1.062507	2.541516
	1.533333	0.161774	0.000000	103	102.962	0.000000	1.062507	2.541303
	1.550000	0.161349	0.000000	103	102.962	0.000000	1.062507	2.540878
	1.566667	0.160924	0.000000	103	102.962	0.000000	1.062507	2.540453
	1.583333	0.160712	0.000000	103	102.962	0.000000	1.062507	2.540241
	1.600000	0.160605	0.000000	103	102.962	0.000000	1.062507	2.540135
	1.616667	0.160605	0.000000	103	102.962	0.000000	1.062507	2.540135
	1.633333	0.160499	0.000000	103	102.962	0.000000	1.062507	2.540028
	1.650000	0.160499	0.000000	103	102.962	0.000000	1.062507	2.540028
	1.666667	0.160393	0.000000	103	102.962	0.000000	1.062507	2.539922
	1.683333	0.160499	0.000000	103	102.962	0.000000	1.062507	2.540028
	1.700000	0.160393	0.000000	103	102.962	0.000000	1.062507	2.539922
	1.716667	0.160499	0.000000	103	102.962	0.000000	1.062507	2.540028
	1.733333	0.160180	0.000000	103	102.962	0.000000	1.062507	2.539710
	1.750000	0.159968	0.000000	103	102.962	0.000000	1.062507	2.539497
	1.766667	0.159862	0.000000	103	102.962	0.000000	1.062507	2.539391
	1.783333	0.159755	0.000000	103	102.962	0.000000	1.062507	2.539285
	1.800000	0.159649	0.000000	103	102.962	0.000000	1.062507	2.539178
	1.816667	0.159649	0.000000	103	102.962	0.000000	1.062507	2.539178
	1.833333	0.159543	0.000000	103	102.962	0.000000	1.062507	2.539072
	1.850000	0.159437	0.000000	103	102.962	0.000000	1.062507	2.538966
	1.866667	0.159012	0.000000	103	102.962	0.000000	1.062507	2.538541
	1.883333	0.158905	0.000000	103	102.962	0.000000	1.062507	2.538435
	1.900000	0.158799	0.000000	103	102.962	0.000000	1.062507	2.538328
	1.916667	0.158693	0.000000	103	102.962	0.000000	1.062507	2.538222
	1.933333	0.158693	0.000000	103	102.962	0.000000	1.062507	2.538222
	1.950000	0.158480	0.000000	103	102.962	0.000000	1.062507	2.538010
	1.966667	0.158374	0.000000	103	102.962	0.000000	1.062507	2.537903
	1.983333	0.158374	0.000000	103	102.962	0.000000	1.062507	2.537903
	2.000000	0.158268	0.000000	103	102.962	0.000000	1.062507	2.537797
	2.016667	0.158055	0.000000	103	102.962	0.000000	1.062507	2.537585
	2.033333	0.157630	0.000000	103	102.962	0.000000	1.062507	2.537160
	2.050000	0.157524	0.000000	103	102.962	0.000000	1.062507	2.537053
	2.066667	0.157312	0.000000	103	102.962	0.000000	1.062507	2.536841
	2.083333	0.157205	0.000000	103	102.962	0.000000	1.062507	2.536735
	2.100000	0.157099	0.000000	103	102.962	0.000000	1.062507	2.536628
	2.116667	0.156993	0.000000	103	102.962	0.000000	1.062507	2.536522
	2.133333	0.156674	0.000000	103	102.962	0.000000	1.062507	2.536203
	2.150000	0.156568	0.000000	103	102.962	0.000000	1.062507	2.536097
	2.166667	0.156462	0.000000	103	102.962	0.000000	1.062507	2.535991
	2.183333	0.156249	0.000000	103	102.962	0.000000	1.062507	2.535778
	2.200000	0.156355	0.000000	103	102.962	0.000000	1.062507	2.535885
	2.216667	0.156355	0.000000	103	102.962	0.000000	1.062507	2.535885
	2.233333	0.156568	0.000000	103	102.962	0.000000	1.062507	2.536097
	2.250000	0.156887	0.000000	103	102.962	0.000000	1.062507	2.536416
	2.266667	0.157099	0.000000	103	102.962	0.000000	1.062507	2.536628
	2.283333	0.157418	0.000000	103	102.962	0.000000	1.062507	2.536947
	2.300000	0.157524	0.000000	103	102.962	0.000000	1.062507	2.537053
	2.316667	0.157843	0.000000	103	102.962	0.000000	1.062507	2.537372
	2.333333	0.157949	0.000000	103	102.962	0.000000	1.062507	2.537478
	2.350000	0.157949	0.000000	103	102.962	0.000000	1.062507	2.537478
	2.366667	0.158055	0.000000	103	102.962	0.000000	1.062507	2.537585
	2.383333	0.158162	0.000000	103	102.962	0.000000	1.062507	2.537691
	2.400000	0.158268	0.000000	103	102.962	0.000000	1.062507	2.537797
	2.416667	0.158268	0.000000	103	102.962	0.000000	1.062507	2.537797
	2.433333	0.158374	0.000000	103	102.962	0.000000	1.062507	2.537903
	2.450000	0.158480	0.000000	103	102.962	0.000000	1.062507	2.538010
	2.466667	0.158374	0.000000	103	102.962	0.000000	1.062507	2.537903
	2.483333	0.158480	0.000000	103	102.962	0.000000	1.062507	2.538010
	2.500000	0.158374	0.000000	103	102.962	0.000000	1.062507	2.537903
	2.516667	0.158374	0.000000	103	102.962	0.000000	1.062507	2.537903
	2.533333	0.158268	0.000000	103	102.962	0.000000	1.062507	2.537797
	2.550000	0.158162	0.000000	103	102.962	0.000000	1.062507	2.537691
	2.566667	0.158055	0.000000	103	102.962	0.000000	1.062507	2.537585
	2.583333	0.158055	0.000000	103	102.962	0.000000	1.062507	2.537585
	2.600000	0.158374	0.000000	103	102.962	0.000000	1.062507	2.537903
	2.616667	0.158480	0.000000	103	102.958	0.000000	1.062507	2.538010
	2.633333	0.158480	0.000000	103	102.962	0.000000	1.062507	2.538010
	2.650000	0.158480	0.000000	103	102.962	0.000000	1.062507	2.538010
	2.666667	0.158693	0.000000	103	102.962	0.000000	1.062507	2.538222
	2.683333	0.158905	0.000000	103	102.962	0.000000	1.062507	2.538435
	2.700000	0.159118	0.000000	103	102.958	0.000000	1.062507	2.538647
	2.716667	0.159118	0.000000	103	102.958	0.000000	1.062507	2.538647
	2.733333	0.159118	0.000000	103	102.962	0.000000	1.062507	2.538647
	2.750000	0.159330	0.000000	103	102.962	0.000000	1.062507	2.538860
	2.766667	0.159012	0.000000	103	102.962	0.000000	1.062507	2.538541
	2.783333	0.158905	0.000000	103	102.962	0.000000	1.062507	2.538435
	2.800000	0.158905	0.000000	103	102.962	0.000000	1.062507	2.538435
	2.816667	0.158905	0.000000	103	102.958	0.000000	1.062507	2.538435
	2.833333	0.159012	0.000000	103	102.962	0.000000	1.062507	2.538541
	2.850000	0.159118	0.000000	103	102.962	0.000000	1.062507	2.538647
	2.866667	0.159330	0.000000	103	102.958	0.000000	1.062507	2.538860
	2.883333	0.159436	0.000000	103	102.958	0.000000	1.062507	2.538966
	2.900000	0.159543	0.000000	103	102.958	0.000000	1.062507	2.539072
	2.916667	0.159862	0.000000	103	102.962	0.000000	1.062507	2.539391
	2.933333	0.160180	0.000000	103	102.962	0.000000	1.062507	2.539710
	2.950000	0.160287	0.000000	103	102.962	0.000000	1.062507	2.539816
	2.966667	0.160393	0.000000	103	102.962	0.000000	1.062507	2.539922
	2.983333	0.160499	0.000000	103	102.962	0.000000	1.062507	2.540028
	3.000000	0.160605	0.000000	103	102.962	0.000000	1.062507	2.540135
	3.016667	0.160605	0.000000	103	102.962	0.000000	1.062507	2.540135
	3.033333	0.160605	0.000000	103	102.962	0.000000	1.062507	2.540135
	3.050000	0.160499	0.000000	103	102.962	0.000000	1.062507	2.540028
	3.066667	0.160287	0.000000	103	102.962	0.000000	1.062507	2.539816
	3.083333	0.160180	0.000000	103	102.962	0.000000	1.062507	2.539710
	3.100000	0.159862	0.000000	103	102.962	0.000000	1.062507	2.539391
	3.116667	0.159862	0.000000	103	102.962	0.000000	1.062507	2.539391
	3.133333	0.159755	0.000000	103	102.962	0.000000	1.062507	2.539285
	3.150000	0.159755	0.000000	103	102.962	0.000000	1.062507	2.539285
	3.166667	0.159755	0.000000	103	102.962	0.000000	1.062507	2.539285
	3.183333	0.159862	0.000000	103	102.962	0.000000	1.062507	2.539391
	3.200000	0.159755	0.000000	103	102.962	0.000000	1.062507	2.539285
	3.216667	0.159543	0.000000	103	102.962	0.000000	1.062507	2.539072
	3.233333	0.159436	0.000000	103	102.958	0.000000	1.062507	2.538966
	3.250000	0.159543	0.000000	103	102.958	0.000000	1.062507	2.539072
	3.266667	0.159330	0.000000	103	102.958	0.000000	1.062507	2.538860
	3.283333	0.159118	0.000000	103	102.962	0.000000	1.062507	2.538647
	3.300000	0.158905	0.000000	103	102.958	0.000000	1.062507	2.538435
	3.316667	0.158799	0.000000	103	102.958	0.000000	1.062507	2.538328
	3.333333	0.158693	0.000000	103	102.958	0.000000	1.062507	2.538222
	3.350000	0.158586	0.000000	103	102.958	0.000000	1.062507	2.538116
	3.366667	0.158587	0.000000	103	102.962	0.000000	1.062507	2.538116
	3.383333	0.158693	0.000000	103	102.958	0.000000	1.062507	2.538222
	3.400000	0.158587	0.000000	103	102.962	0.000000	1.062507	2.538116
	3.416667	0.158693	0.000000	103	102.962	0.000000	1.062507	2.538222
	3.433333	0.158587	0.000000	103	102.962	0.000000	1.062507	2.538116
	3.450000	0.158374	0.000000	103	102.962	0.000000	1.062507	2.537903
	3.466667	0.158161	0.000000	103	102.958	0.000000	1.062507	2.537691
	3.483333	0.158055	0.000000	103	102.958	0.000000	1.062507	2.537585
	3.500000	0.157630	0.000000	103	102.962	0.000000	1.062507	2.537160
	3.516667	0.157311	0.000000	103	102.958	0.000000	1.062507	2.536841
	3.533333	0.157205	0.000000	103	102.962	0.000000	1.062507	2.536735
	3.550000	0.157205	0.000000	103	102.962	0.000000	1.062507	2.536735
	3.566667	0.157099	0.000000	103	102.962	0.000000	1.062507	2.536628
	3.583333	0.156887	0.000000	103	102.962	0.000000	1.062507	2.536416
	3.600000	0.156674	0.000000	103	102.958	0.000000	1.062507	2.536203
	3.616667	0.156461	0.000000	103	102.958	0.000000	1.062507	2.535991
	3.633333	0.156461	0.000000	103	102.958	0.000000	1.062507	2.535991
	3.650000	0.156568	0.000000	103	102.962	0.000000	1.062507	2.536097
	3.666667	0.156462	0.000000	103	102.962	0.000000	1.062507	2.535991
	3.683333	0.156674	0.000000	103	102.958	0.000000	1.062507	2.536203
	3.700000	0.156780	0.000000	103	102.958	0.000000	1.062507	2.536310
	3.716667	0.156568	0.000000	103	102.962	0.000000	1.062507	2.536097
	3.733333	0.156355	0.000000	103	102.958	0.000000	1.062507	2.535885
	3.750000	0.156568	0.000000	103	102.962	0.000000	1.062507	2.536097
	3.766667	0.156780	0.000000	103	102.958	0.000000	1.062507	2.536310
	3.783333	0.156993	0.000000	103	102.958	0.000000	1.062507	2.536522
	3.800000	0.157312	0.000000	103	102.962	0.000000	1.062507	2.536841
	3.816667	0.157311	0.000000	103	102.958	0.000000	1.062507	2.536841
	3.833333	0.157311	0.000000	103	102.958	0.000000	1.062507	2.536841
	3.850000	0.157205	0.000000	103	102.958	0.000000	1.062507	2.536735
	3.866667	0.157418	0.000000	103	102.958	0.000000	1.062507	2.536947
	3.883333	0.157524	0.000000	103	102.958	0.000000	1.062507	2.537053
	3.900000	0.157630	0.000000	103	102.958	0.000000	1.062507	2.537160
	3.916667	0.157843	0.000000	103	102.962	0.000000	1.062507	2.537372
	3.933333	0.157949	0.000000	103	102.958	0.000000	1.062507	2.537478
	3.950000	0.158161	0.000000	103	102.958	0.000000	1.062507	2.537691
	3.966667	0.158268	0.000000	103	102.962	0.000000	1.062507	2.537797
	3.983333	0.158162	0.000000	103	102.962	0.000000	1.062507	2.537691
	4.000000	0.158162	0.000000	103	102.962	0.000000	1.062507	2.537691
	4.016667	0.157949	0.000000	103	102.962	0.000000	1.062507	2.537478
	4.033333	0.157843	0.000000	103	102.962	0.000000	1.062507	2.537372
	4.050000	0.157736	0.000000	103	102.958	0.000000	1.062507	2.537266
	4.066667	0.157524	0.000000	103	102.958	0.000000	1.062507	2.537053
	4.083333	0.157311	0.000000	103	102.958	0.000000	1.062507	2.536841
	4.100000	0.157418	0.000000	103	102.958	0.000000	1.062507	2.536947
	4.116667	0.157630	0.000000	103	102.958	0.000000	1.062507	2.537160
	4.133333	0.157524	0.000000	103	102.958	0.000000	1.062507	2.537053
	4.150000	0.157524	0.000000	103	102.958	0.000000	1.062507	2.537053
	4.166667	0.157630	0.000000	103	102.958	0.000000	1.062507	2.537160
	4.183333	0.157737	0.000000	103	102.962	0.000000	1.062507	2.537266
	4.200000	0.158055	0.000000	103	102.962	0.000000	1.062507	2.537585
	4.216667	0.158055	0.000000	103	102.962	0.000000	1.062507	2.537585
	4.233333	0.158268	0.000000	103	102.958	0.000000	1.062507	2.537797
	4.250000	0.158374	0.000000	103	102.958	0.000000	1.062507	2.537903
	4.266667	0.158268	0.000000	103	102.962	0.000000	1.062507	2.537797
	4.283333	0.158162	0.000000	103	102.962	0.000000	1.062507	2.537691
	4.300000	0.157949	0.000000	103	102.958	0.000000	1.062507	2.537478
	4.316667	0.157737	0.000000	103	102.962	0.000000	1.062507	2.537266
	4.333333	0.157736	0.000000	103	102.958	0.000000	1.062507	2.537266
	4.350000	0.157418	0.000000	103	102.958	0.000000	1.062507	2.536947
	4.366667	0.157205	0.000000	103	102.958	0.000000	1.062507	2.536735
	4.383333	0.157099	0.000000	103	102.958	0.000000	1.062507	2.536628
	4.400000	0.157099	0.000000	103	102.958	0.000000	1.062507	2.536628
	4.416667	0.157099	0.000000	103	102.958	0.000000	1.062507	2.536628
	4.433333	0.156993	0.000000	103	102.958	0.000000	1.062507	2.536522
	4.450000	0.156993	0.000000	103	102.962	0.000000	1.062507	2.536522
	4.466667	0.156993	0.000000	103	102.958	0.000000	1.062507	2.536522
	4.483333	0.157205	0.000000	103	102.958	0.000000	1.062507	2.536735
	4.500000	0.157311	0.000000	103	102.958	0.000000	1.062507	2.536841
	4.516667	0.157205	0.000000	103	102.962	0.000000	1.062507	2.536735
	4.533333	0.157099	0.000000	103	102.962	0.000000	1.062507	2.536628
	4.550000	0.157099	0.000000	103	102.958	0.000000	1.062507	2.536628
	4.566667	0.156993	0.000000	103	102.962	0.000000	1.062507	2.536522
	4.583333	0.156887	0.000000	103	102.962	0.000000	1.062507	2.536416
	4.600000	0.156780	0.000000	103	102.962	0.000000	1.062507	2.536310
	4.616667	0.156568	0.000000	103	102.958	0.000000	1.062507	2.536097
	4.633333	0.156461	0.000000	103	102.958	0.000000	1.062507	2.535991
	4.650000	0.156249	0.000000	103	102.962	0.000000	1.062507	2.535778
	4.666667	0.156249	0.000000	103	102.958	0.000000	1.062507	2.535778
	4.683333	0.156249	0.000000	103	102.962	0.000000	1.062507	2.535778
	4.700000	0.156355	0.000000	103	102.958	0.000000	1.062507	2.535885
	4.716667	0.156461	0.000000	103	102.958	0.000000	1.062507	2.535991
	4.733333	0.156355	0.000000	103	102.962	0.000000	1.062507	2.535885
	4.750000	0.156249	0.000000	103	102.958	0.000000	1.062507	2.535778
	4.766667	0.156249	0.000000	103	102.962	0.000000	1.062507	2.535778
	4.783333	0.155824	0.000000	103	102.958	0.000000	1.062507	2.535353
	4.800000	0.155399	0.000000	103	102.958	0.000000	1.062507	2.534928
	4.816667	0.155080	0.000000	103	102.962	0.000000	1.062507	2.534610
	4.833333	0.154974	0.000000	103	102.958	0.000000	1.062507	2.534503
	4.850000	0.154868	0.000000	103	102.958	0.000000	1.062507	2.534397
	4.866667	0.154868	0.000000	103	102.958	0.000000	1.062507	2.534397
	4.883333	0.154655	0.000000	103	102.958	0.000000	1.062507	2.534184
	4.900000	0.154230	0.000000	103	102.958	0.000000	1.062507	2.533759
	4.916667	0.154124	0.000000	103	102.958	0.000000	1.062507	2.533653
	4.933333	0.154230	0.000000	103	102.958	0.000000	1.062507	2.533759
	4.950000	0.154336	0.000000	103	102.958	0.000000	1.062507	2.533866
	4.966667	0.154549	0.000000	103	102.958	0.000000	1.062507	2.534078
2) DSC 8500 Temperature Scan
	4.983333	0.154879	0.000000	103.004	102.958	0.000000	1.062507	2.534397
	4.984667	0.154818	0.000000	103.02	102.962	0.000000	1.062507	2.534291
	4.986000	0.153920	0.000000	103.041	102.958	0.000000	1.062507	2.533334
	4.987333	0.151429	0.000000	103.062	102.958	0.000000	1.062507	2.530784
	4.988667	0.147982	0.000000	103.083	102.958	0.000000	1.062507	2.527278
	4.990000	0.154734	0.000000	103.1	102.958	0.000000	1.062507	2.522816
	4.991333	0.150053	0.000000	103.12	102.962	0.000000	1.062507	2.517928
	4.992667	0.146084	0.000000	103.141	102.962	0.000000	1.062507	2.512616
	4.994000	0.144011	0.000000	103.162	102.966	0.000000	1.062507	2.507835
	4.995333	0.143185	0.000000	103.183	102.966	0.000000	1.062507	2.502947
	4.996667	0.144111	0.000000	103.2	102.97	0.000000	1.062507	2.498803
	4.998000	0.145764	0.000000	103.22	102.975	0.000000	1.062507	2.494872
	4.999333	0.148292	0.000000	103.241	102.975	0.000000	1.062507	2.491579
	5.000667	0.151531	0.000000	103.262	102.979	0.000000	1.062507	2.489135
	5.002000	0.154439	0.000000	103.283	102.983	0.000000	1.062507	2.486798
	5.003333	0.157699	0.000000	103.3	102.991	0.000000	1.062507	2.485417
	5.004667	0.160707	0.000000	103.32	103	0.000000	1.062507	2.484567
	5.006000	0.163122	0.000000	103.341	103.008	0.000000	1.062507	2.484036
	5.007333	0.165183	0.000000	103.362	103.016	0.000000	1.062507	2.484142
	5.008667	0.166669	0.000000	103.383	103.025	0.000000	1.062508	2.484780
	5.010000	0.167396	0.000000	103.4	103.037	0.000000	1.062508	2.485737
	5.011333	0.167800	0.000000	103.42	103.045	0.000000	1.062508	2.487437
	5.012667	0.167105	0.000000	103.441	103.058	0.000000	1.062508	2.489138
	5.014000	0.165982	0.000000	103.462	103.066	0.000000	1.062508	2.491476
	5.015333	0.164461	0.000000	103.483	103.079	0.000000	1.062508	2.494451
	5.016667	0.162285	0.000000	103.5	103.091	0.000000	1.062509	2.497745
	5.018000	0.159760	0.000000	103.52	103.108	0.000000	1.062509	2.501571
	5.019333	0.156727	0.000000	103.541	103.12	0.000000	1.062509	2.505715
	5.020667	0.153691	0.000000	103.562	103.133	0.000000	1.062509	2.510603
	5.022000	0.150773	0.000000	103.583	103.15	0.000000	1.062509	2.516235
	5.023333	0.147723	0.000000	103.6	103.166	0.000000	1.062510	2.522292
	5.024667	0.145094	0.000000	103.62	103.179	0.000000	1.062510	2.529199
	5.026000	0.142765	0.000000	103.641	103.195	0.000000	1.062510	2.536743
	5.027333	0.141024	0.000000	103.662	103.212	0.000000	1.062510	2.545137
	5.028667	0.140011	0.000000	103.679	103.229	0.000000	1.062511	2.554382
	5.030000	0.139829	0.000000	103.7	103.241	0.000000	1.062511	2.564476
	5.031333	0.140855	0.000000	103.72	103.258	0.000000	1.062511	2.575739
	5.032667	0.142960	0.000000	103.741	103.279	0.000000	1.062511	2.587959
	5.034000	0.146270	0.000000	103.762	103.295	0.000000	1.062512	2.601135
	5.035333	0.151263	0.000000	103.779	103.312	0.000000	1.062512	2.615692
	5.036667	0.157575	0.000000	103.8	103.329	0.000000	1.062512	2.631205
	5.038000	0.165789	0.000000	103.82	103.345	0.000000	1.062512	2.648206
	5.039333	0.175420	0.000000	103.841	103.362	0.000000	1.062513	2.666163
	5.040667	0.187195	0.000000	103.862	103.383	0.000000	1.062513	2.685714
	5.042000	0.200891	0.000000	103.879	103.4	0.000000	1.062513	2.706646
	5.043333	0.216427	0.000000	103.9	103.42	0.000000	1.062514	2.728854
	5.044667	0.234037	0.000000	103.92	103.437	0.000000	1.062514	2.752548
	5.046000	0.253736	0.000000	103.941	103.458	0.000000	1.062514	2.777731
	5.047333	0.275527	0.000000	103.962	103.475	0.000000	1.062514	2.804400
	5.048667	0.299288	0.000000	103.979	103.495	0.000000	1.062515	2.832452
	5.050000	0.325036	0.000000	104	103.512	0.000000	1.062515	2.861884
	5.051333	0.352964	0.000000	104.02	103.533	0.000000	1.062515	2.892910
	5.052667	0.383022	0.000000	104.041	103.545	0.000000	1.062515	2.925530
	5.054000	0.414987	0.000000	104.062	103.566	0.000000	1.062516	2.959531
	5.055333	0.448834	0.000000	104.079	103.583	0.000000	1.062516	2.994914
	5.056667	0.484651	0.000000	104.1	103.604	0.000000	1.062516	3.031784
	5.058000	0.522253	0.000000	104.12	103.62	0.000000	1.062517	3.070035
	5.059333	0.561717	0.000000	104.141	103.641	0.000000	1.062517	3.109774
	5.060667	0.602680	0.000000	104.158	103.662	0.000000	1.062517	3.150682
	5.062000	0.645323	0.000000	104.179	103.679	0.000000	1.062517	3.192971
	5.063333	0.689717	0.000000	104.2	103.695	0.000000	1.062518	3.236748
	5.064667	0.735499	0.000000	104.22	103.716	0.000000	1.062518	3.281693
	5.066000	0.782823	0.000000	104.241	103.737	0.000000	1.062518	3.328020
	5.067333	0.831438	0.000000	104.258	103.754	0.000000	1.062519	3.375515
	5.068667	0.881118	0.000000	104.279	103.775	0.000000	1.062519	3.423967
	5.070000	0.931995	0.000000	104.3	103.8	0.000000	1.062519	3.473588
	5.071333	0.984137	0.000000	104.32	103.816	0.000000	1.062519	3.524483
	5.072667	1.036982	0.000000	104.341	103.837	0.000000	1.062520	3.576123
	5.074000	1.090918	0.000000	104.358	103.854	0.000000	1.062520	3.628931
	5.075333	1.145609	0.000000	104.379	103.875	0.000000	1.062520	3.682589
	5.076667	1.200773	0.000000	104.4	103.895	0.000000	1.062521	3.736885
	5.078000	1.256935	0.000000	104.42	103.916	0.000000	1.062521	3.792350
	5.079333	1.313439	0.000000	104.441	103.933	0.000000	1.062521	3.848346
	5.080667	1.370330	0.000000	104.458	103.95	0.000000	1.062522	3.904979
	5.082000	1.427830	0.000000	104.479	103.97	0.000000	1.062522	3.962463
	5.083333	1.485180	0.000000	104.5	103.991	0.000000	1.062522	4.020052
	5.084667	1.543318	0.000000	104.52	104.012	0.000000	1.062522	4.078705
	5.086000	1.601262	0.000000	104.541	104.033	0.000000	1.062523	4.137464
	5.087333	1.659312	0.000000	104.558	104.05	0.000000	1.062523	4.196647
	5.088667	1.717478	0.000000	104.579	104.07	0.000000	1.062523	4.256256
	5.090000	1.775861	0.000000	104.6	104.091	0.000000	1.062524	4.316396
	5.091333	1.833708	0.000000	104.62	104.108	0.000000	1.062524	4.376323
	5.092667	1.891834	0.000000	104.637	104.129	0.000000	1.062524	4.436889
	5.094000	1.949538	0.000000	104.658	104.15	0.000000	1.062525	4.497348
	5.095333	2.007137	0.000000	104.679	104.17	0.000000	1.062525	4.558019
	5.096667	2.064510	0.000000	104.7	104.187	0.000000	1.062525	4.618797
	5.098000	2.121350	0.000000	104.72	104.208	0.000000	1.062525	4.679362
	5.099333	2.177865	0.000000	104.737	104.229	0.000000	1.062526	4.739927
	5.100667	2.234257	0.000000	104.758	104.25	0.000000	1.062526	4.800705
	5.102000	2.289914	0.000000	104.779	104.266	0.000000	1.062526	4.861058
	5.103333	2.345378	0.000000	104.8	104.287	0.000000	1.062527	4.921517
	5.104667	2.400234	0.000000	104.82	104.308	0.000000	1.062527	4.981657
	5.106000	2.454368	0.000000	104.837	104.329	0.000000	1.062527	5.041373
	5.107333	2.508219	0.000000	104.858	104.35	0.000000	1.062528	5.101088
	5.108667	2.561360	0.000000	104.879	104.37	0.000000	1.062528	5.160379
	5.110000	2.614043	0.000000	104.9	104.387	0.000000	1.062528	5.219457
	5.111333	2.666064	0.000000	104.92	104.408	0.000000	1.062528	5.278110
	5.112667	2.717087	0.000000	104.937	104.429	0.000000	1.062529	5.336019
	5.114000	2.768011	0.000000	104.958	104.445	0.000000	1.062529	5.394034
	5.115333	2.818206	0.000000	104.979	104.466	0.000000	1.062529	5.451519
	5.116667	2.867677	0.000000	105	104.487	0.000000	1.062530	5.508472
	5.118000	2.916225	0.000000	105.02	104.508	0.000000	1.062530	5.564682
	5.119333	2.964181	0.000000	105.037	104.529	0.000000	1.062530	5.620466
	5.120667	3.011793	0.000000	105.058	104.545	0.000000	1.062530	5.676038
	5.122000	3.058422	0.000000	105.079	104.566	0.000000	1.062531	5.730760
	5.123333	3.104399	0.000000	105.1	104.587	0.000000	1.062531	5.784951
	5.124667	3.149652	0.000000	105.12	104.604	0.000000	1.062531	5.838503
	5.126000	3.194381	0.000000	105.137	104.625	0.000000	1.062532	5.891632
	5.127333	3.238285	0.000000	105.158	104.641	0.000000	1.062532	5.944016
	5.128667	3.281604	0.000000	105.179	104.662	0.000000	1.062532	5.995869
	5.130000	3.324125	0.000000	105.2	104.679	0.000000	1.062532	6.046979
	5.131333	3.366067	0.000000	105.216	104.704	0.000000	1.062533	6.097557
	5.132667	3.407061	0.000000	105.237	104.72	0.000000	1.062533	6.147179
	5.134000	3.447595	0.000000	105.258	104.745	0.000000	1.062533	6.196376
	5.135333	3.487355	0.000000	105.279	104.766	0.000000	1.062534	6.244830
	5.136667	3.526282	0.000000	105.3	104.783	0.000000	1.062534	6.292433
	5.138000	3.564877	0.000000	105.316	104.804	0.000000	1.062534	6.339717
	5.139333	3.602410	0.000000	105.337	104.82	0.000000	1.062535	6.385939
	5.140667	3.639316	0.000000	105.358	104.845	0.000000	1.062535	6.431524
	5.142000	3.675824	0.000000	105.379	104.866	0.000000	1.062535	6.476684
	5.143333	3.711412	0.000000	105.4	104.883	0.000000	1.062536	6.520887
	5.144667	3.746402	0.000000	105.416	104.904	0.000000	1.062536	6.564453
	5.146000	3.780817	0.000000	105.437	104.92	0.000000	1.062536	6.607381
	5.147333	3.814756	0.000000	105.458	104.941	0.000000	1.062536	6.649778
	5.148667	3.847676	0.000000	105.479	104.958	0.000000	1.062537	6.691112
	5.150000	3.880233	0.000000	105.5	104.979	0.000000	1.062537	6.732022
	5.151333	3.912108	0.000000	105.516	104.995	0.000000	1.062537	6.772187
	5.152667	3.943322	0.000000	105.537	105.02	0.000000	1.062538	6.811610
	5.154000	3.973988	0.000000	105.558	105.037	0.000000	1.062538	6.850394
	5.155333	4.004108	0.000000	105.579	105.062	0.000000	1.062538	6.888542
	5.156667	4.033338	0.000000	105.6	105.079	0.000000	1.062538	6.925732
	5.158000	4.062231	0.000000	105.616	105.095	0.000000	1.062539	6.962497
	5.159333	4.090595	0.000000	105.637	105.116	0.000000	1.062539	6.998626
	5.160667	4.118096	0.000000	105.658	105.141	0.000000	1.062539	7.033798
	5.162000	4.145277	0.000000	105.679	105.158	0.000000	1.062540	7.068545
	5.163333	4.171706	0.000000	105.695	105.179	0.000000	1.062540	7.102442
	5.164667	4.197588	0.000000	105.716	105.2	0.000000	1.062540	7.135702
	5.166000	4.223051	0.000000	105.737	105.22	0.000000	1.062541	7.168430
	5.167333	4.248102	0.000000	105.758	105.241	0.000000	1.062541	7.200627
	5.168667	4.272516	0.000000	105.779	105.258	0.000000	1.062541	7.232080
	5.170000	4.296392	0.000000	105.795	105.279	0.000000	1.062541	7.262896
	5.171333	4.320066	0.000000	105.816	105.295	0.000000	1.062542	7.293393
	5.172667	4.342911	0.000000	105.837	105.316	0.000000	1.062542	7.322934
	5.174000	4.365442	0.000000	105.858	105.337	0.000000	1.062542	7.352049
	5.175333	4.387337	0.000000	105.879	105.358	0.000000	1.062543	7.380421
	5.176667	4.408905	0.000000	105.895	105.379	0.000000	1.062543	7.408369
	5.178000	4.430168	0.000000	105.916	105.4	0.000000	1.062543	7.435891
	5.179333	4.450911	0.000000	105.937	105.416	0.000000	1.062544	7.462775
	5.180667	4.471041	0.000000	105.958	105.433	0.000000	1.062544	7.488915
	5.182000	4.490852	0.000000	105.979	105.458	0.000000	1.062544	7.514631
	5.183333	4.510333	0.000000	105.995	105.479	0.000000	1.062544	7.539922
	5.184667	4.529415	0.000000	106.016	105.5	0.000000	1.062545	7.564682
	5.186000	4.547640	0.000000	106.037	105.516	0.000000	1.062545	7.588484
	5.187333	4.565857	0.000000	106.058	105.537	0.000000	1.062545	7.612181
	5.188667	4.583666	0.000000	106.079	105.558	0.000000	1.062546	7.635347
	5.190000	4.601046	0.000000	106.095	105.579	0.000000	1.062546	7.657982
	5.191333	4.617794	0.000000	106.116	105.6	0.000000	1.062546	7.679872
	5.192667	4.634428	0.000000	106.137	105.616	0.000000	1.062547	7.701550
	5.194000	4.650753	0.000000	106.158	105.637	0.000000	1.062547	7.722803
	5.195333	4.666440	0.000000	106.175	105.658	0.000000	1.062547	7.743313
	5.196667	4.681796	0.000000	106.195	105.679	0.000000	1.062548	7.763397
	5.198000	4.696931	0.000000	106.216	105.7	0.000000	1.062548	7.783163
	5.199333	4.711634	0.000000	106.237	105.72	0.000000	1.062548	7.802397
	5.200667	4.726020	0.000000	106.258	105.737	0.000000	1.062548	7.821206
	5.202000	4.740078	0.000000	106.275	105.758	0.000000	1.062549	7.839590
	5.203333	4.754029	0.000000	106.295	105.779	0.000000	1.062549	7.857762
	5.204667	4.767431	0.000000	106.316	105.8	0.000000	1.062549	7.875297
	5.206000	4.780616	0.000000	106.337	105.82	0.000000	1.062550	7.892512
	5.207333	4.793264	0.000000	106.358	105.837	0.000000	1.062550	7.909090
	5.208667	4.805990	0.000000	106.375	105.858	0.000000	1.062550	7.925668
	5.210000	4.818272	0.000000	106.395	105.879	0.000000	1.062551	7.941715
	5.211333	4.830321	0.000000	106.416	105.9	0.000000	1.062551	7.957443
	5.212667	4.842153	0.000000	106.437	105.916	0.000000	1.062551	7.972852
	5.214000	4.853433	0.000000	106.458	105.937	0.000000	1.062551	7.987624
	5.215333	4.864571	0.000000	106.475	105.958	0.000000	1.062552	8.002183
	5.216667	4.875451	0.000000	106.495	105.975	0.000000	1.062552	8.016423
	5.218000	4.886009	0.000000	106.516	105.995	0.000000	1.062552	8.030239
	5.219333	4.896561	0.000000	106.537	106.016	0.000000	1.062553	8.043948
	5.220667	4.906750	0.000000	106.558	106.041	0.000000	1.062553	8.057233
	5.222000	4.916694	0.000000	106.575	106.058	0.000000	1.062553	8.070198
	5.223333	4.926404	0.000000	106.595	106.079	0.000000	1.062554	8.082845
	5.224667	4.935961	0.000000	106.616	106.1	0.000000	1.062554	8.095279
	5.226000	4.945269	0.000000	106.637	106.12	0.000000	1.062554	8.107394
	5.227333	4.954116	0.000000	106.658	106.137	0.000000	1.062554	8.118978
	5.228667	4.963136	0.000000	106.675	106.158	0.000000	1.062555	8.130669
	5.230000	4.971916	0.000000	106.695	106.179	0.000000	1.062555	8.142040
	5.231333	4.980236	0.000000	106.716	106.2	0.000000	1.062555	8.152881
	5.232667	4.988717	0.000000	106.737	106.216	0.000000	1.062556	8.163827
	5.234000	4.996712	0.000000	106.754	106.237	0.000000	1.062556	8.174242
	5.235333	5.004446	0.000000	106.775	106.258	0.000000	1.062556	8.184339
	5.236667	5.012355	0.000000	106.795	106.275	0.000000	1.062556	8.194542
	5.238000	5.019789	0.000000	106.816	106.295	0.000000	1.062557	8.204213
	5.239333	5.027169	0.000000	106.837	106.316	0.000000	1.062557	8.213779
	5.240667	5.034288	0.000000	106.854	106.341	0.000000	1.062557	8.223026
	5.242000	5.041472	0.000000	106.875	106.354	0.000000	1.062558	8.232272
	5.243333	5.048287	0.000000	106.895	106.375	0.000000	1.062558	8.241093
	5.244667	5.055050	0.000000	106.916	106.391	0.000000	1.062558	8.249808
	5.246000	5.061757	0.000000	106.937	106.412	0.000000	1.062559	8.258417
	5.247333	5.068400	0.000000	106.954	106.437	0.000000	1.062559	8.266921
	5.248667	5.074983	0.000000	106.975	106.458	0.000000	1.062559	8.275317
	5.250000	5.081392	0.000000	106.995	106.475	0.000000	1.062559	8.283501
	5.251333	5.087420	0.000000	107.016	106.495	0.000000	1.062560	8.291260
	5.252667	5.093618	0.000000	107.037	106.512	0.000000	1.062560	8.299125
	5.254000	5.099630	0.000000	107.054	106.533	0.000000	1.062560	8.306778
	5.255333	5.105364	0.000000	107.075	106.554	0.000000	1.062561	8.314112
	5.256667	5.111374	0.000000	107.095	106.575	0.000000	1.062561	8.321659
	5.258000	5.116893	0.000000	107.116	106.595	0.000000	1.062561	8.328674
	5.259333	5.122233	0.000000	107.137	106.616	0.000000	1.062562	8.335477
	5.260667	5.127715	0.000000	107.154	106.637	0.000000	1.062562	8.342386
	5.262000	5.133137	0.000000	107.175	106.658	0.000000	1.062562	8.349189
	5.263333	5.138277	0.000000	107.195	106.675	0.000000	1.062562	8.355673
	5.264667	5.143554	0.000000	107.216	106.695	0.000000	1.062563	8.362263
	5.266000	5.148329	0.000000	107.233	106.712	0.000000	1.062563	8.368321
	5.267333	5.152935	0.000000	107.254	106.733	0.000000	1.062563	8.374168
	5.268667	5.157690	0.000000	107.275	106.762	0.000000	1.062564	8.380122
	5.270000	5.162159	0.000000	107.295	106.779	0.000000	1.062564	8.385755
	5.271333	5.166662	0.000000	107.316	106.795	0.000000	1.062564	8.391389
	5.272667	5.170770	0.000000	107.333	106.816	0.000000	1.062565	8.396598
	5.274000	5.174892	0.000000	107.354	106.837	0.000000	1.062565	8.401807
	5.275333	5.179030	0.000000	107.375	106.854	0.000000	1.062565	8.407016
	5.276667	5.182926	0.000000	107.395	106.875	0.000000	1.062565	8.411906
	5.278000	5.186525	0.000000	107.416	106.895	0.000000	1.062566	8.416477
	5.279333	5.190553	0.000000	107.433	106.916	0.000000	1.062566	8.421474
	5.280667	5.193986	0.000000	107.454	106.937	0.000000	1.062566	8.425833
	5.282000	5.197534	0.000000	107.475	106.954	0.000000	1.062567	8.430298
	5.283333	5.200771	0.000000	107.495	106.97	0.000000	1.062567	8.434444
	5.284667	5.204045	0.000000	107.516	106.991	0.000000	1.062567	8.438590
	5.286000	5.207252	0.000000	107.533	107.016	0.000000	1.062568	8.442631
	5.287333	5.210395	0.000000	107.554	107.037	0.000000	1.062568	8.446565
	5.288667	5.213316	0.000000	107.575	107.058	0.000000	1.062568	8.450286
	5.290000	5.216258	0.000000	107.595	107.079	0.000000	1.062569	8.454008
	5.291333	5.219021	0.000000	107.616	107.095	0.000000	1.062569	8.457516
	5.292667	5.222031	0.000000	107.633	107.116	0.000000	1.062569	8.461238
	5.294000	5.224624	0.000000	107.654	107.137	0.000000	1.062569	8.464534
	5.295333	5.227219	0.000000	107.675	107.154	0.000000	1.062570	8.467830
	5.296667	5.229759	0.000000	107.695	107.175	0.000000	1.062570	8.471020
	5.298000	5.231991	0.000000	107.712	107.195	0.000000	1.062570	8.473892
	5.299333	5.234661	0.000000	107.733	107.216	0.000000	1.062571	8.477188
	5.300667	5.236922	0.000000	107.754	107.237	0.000000	1.062571	8.480060
	5.302000	5.239299	0.000000	107.775	107.258	0.000000	1.062571	8.483037
	5.303333	5.241581	0.000000	107.795	107.275	0.000000	1.062571	8.485908
	5.304667	5.243665	0.000000	107.812	107.3	0.000000	1.062572	8.488568
	5.306000	5.245680	0.000000	107.833	107.316	0.000000	1.062572	8.491120
	5.307333	5.247829	0.000000	107.854	107.333	0.000000	1.062572	8.493778
	5.308667	5.250071	0.000000	107.875	107.358	0.000000	1.062573	8.496544
[...]
	57.8783	-0.244612	0.000000	303	302.945	0.000000	1.065513	1.296622
	57.8833	-0.244825	0.000000	303	302.95	0.000000	1.065513	1.296409
	57.8883	-0.244718	0.000000	303	302.945	0.000000	1.065513	1.296516
	57.8933	-0.244718	0.000000	303	302.95	0.000000	1.065513	1.296516
	57.8983	-0.244718	0.000000	303	302.945	0.000000	1.065513	1.296516
	57.9033	-0.244825	0.000000	303	302.95	0.000000	1.065513	1.296409
	57.9083	-0.245144	0.000000	303	302.95	0.000000	1.065513	1.296090
	57.9133	-0.245357	0.000000	303	302.945	0.000000	1.065513	1.295876
	57.9183	-0.245357	0.000000	303	302.95	0.000000	1.065513	1.295877
	57.9233	-0.245357	0.000000	303	302.95	0.000000	1.065513	1.295877
	57.9283	-0.244825	0.000000	303	302.945	0.000000	1.065513	1.296409
	57.9333	-0.244612	0.000000	303	302.945	0.000000	1.065513	1.296622
	57.9383	-0.244931	0.000000	303	302.95	0.000000	1.065513	1.296303
	57.9433	-0.244825	0.000000	303	302.945	0.000000	1.065513	1.296409
	57.9483	-0.244718	0.000000	303	302.95	0.000000	1.065513	1.296516
	57.9533	-0.244612	0.000000	303	302.945	0.000000	1.065513	1.296622
	57.9583	-0.244399	0.000000	303	302.945	0.000000	1.065513	1.296835
	57.9633	-0.244185	0.000000	303	302.95	0.000000	1.065513	1.297049
	57.9683	-0.243972	0.000000	303	302.95	0.000000	1.065513	1.297262
	57.9733	-0.243972	0.000000	303	302.95	0.000000	1.065513	1.297262
	57.9783	-0.243972	0.000000	303	302.95	0.000000	1.065513	1.297262
	57.9833	-0.243972	0.000000	303	302.95	0.000000	1.065513	1.297262
	57.9883	-0.244079	0.000000	303	302.945	0.000000	1.065513	1.297155
	57.9933	-0.244079	0.000000	303	302.95	0.000000	1.065513	1.297155
	57.9983	-0.244185	0.000000	303	302.945	0.000000	1.065513	1.297049
	58.0033	-0.243759	0.000000	303	302.95	0.000000	1.065513	1.297475
	58.0083	-0.243759	0.000000	303	302.945	0.000000	1.065513	1.297475
	58.0133	-0.243439	0.000000	303	302.95	0.000000	1.065513	1.297794
	58.0183	-0.243439	0.000000	303	302.95	0.000000	1.065513	1.297794
	58.0233	-0.243440	0.000000	303	302.945	0.000000	1.065513	1.297794
	58.0283	-0.243439	0.000000	303	302.95	0.000000	1.065513	1.297794
	58.0333	-0.243226	0.000000	303	302.945	0.000000	1.065513	1.298007
	58.0383	-0.243226	0.000000	303	302.945	0.000000	1.065513	1.298007
	58.0433	-0.243226	0.000000	303	302.95	0.000000	1.065513	1.298008
	58.0483	-0.243226	0.000000	303	302.95	0.000000	1.065513	1.298008
	58.0533	-0.243226	0.000000	303	302.95	0.000000	1.065513	1.298008
	58.0583	-0.243120	0.000000	303	302.95	0.000000	1.065513	1.298114
	58.0633	-0.243226	0.000000	303	302.945	0.000000	1.065513	1.298007
	58.0683	-0.243226	0.000000	303	302.95	0.000000	1.065513	1.298008
	58.0733	-0.243333	0.000000	303	302.95	0.000000	1.065513	1.297901
	58.0783	-0.243439	0.000000	303	302.95	0.000000	1.065513	1.297794
	58.0833	-0.243653	0.000000	303	302.95	0.000000	1.065513	1.297581
	58.0883	-0.243866	0.000000	303	302.945	0.000000	1.065513	1.297368
	58.0933	-0.243972	0.000000	303	302.945	0.000000	1.065513	1.297262
	58.0983	-0.244079	0.000000	303	302.95	0.000000	1.065513	1.297155
	58.1033	-0.244185	0.000000	303	302.95	0.000000	1.065513	1.297049
	58.1083	-0.244185	0.000000	303	302.945	0.000000	1.065513	1.297049
	58.1133	-0.244079	0.000000	303	302.95	0.000000	1.065513	1.297155
	58.1183	-0.244079	0.000000	303	302.95	0.000000	1.065513	1.297155
	58.1233	-0.244185	0.000000	303	302.945	0.000000	1.065513	1.297049
	58.1283	-0.244292	0.000000	303	302.95	0.000000	1.065513	1.296942
	58.1333	-0.244292	0.000000	303	302.95	0.000000	1.065513	1.296942
	58.1383	-0.244185	0.000000	303	302.95	0.000000	1.065513	1.297049
	58.1433	-0.244292	0.000000	303	302.95	0.000000	1.065513	1.296942
	58.1483	-0.244185	0.000000	303	302.95	0.000000	1.065513	1.297049
	58.1533	-0.244185	0.000000	303	302.95	0.000000	1.065513	1.297049
	58.1583	-0.244398	0.000000	303	302.95	0.000000	1.065513	1.296836
	58.1633	-0.244718	0.000000	303	302.95	0.000000	1.065513	1.296516
	58.1683	-0.244931	0.000000	303	302.945	0.000000	1.065513	1.296303
	58.1733	-0.244931	0.000000	303	302.95	0.000000	1.065513	1.296303
	58.1783	-0.244931	0.000000	303	302.95	0.000000	1.065513	1.296303
	58.1833	-0.245251	0.000000	303	302.95	0.000000	1.065513	1.295983
	58.1883	-0.245464	0.000000	303	302.945	0.000000	1.065513	1.295770
	58.1933	-0.245464	0.000000	303	302.945	0.000000	1.065513	1.295770
	58.1983	-0.245677	0.000000	303	302.945	0.000000	1.065513	1.295557
	58.2033	-0.245571	0.000000	303	302.945	0.000000	1.065513	1.295663
	58.2083	-0.245357	0.000000	303	302.95	0.000000	1.065513	1.295877
	58.2133	-0.245144	0.000000	303	302.95	0.000000	1.065513	1.296090
	58.2183	-0.245251	0.000000	303	302.945	0.000000	1.065513	1.295983
	58.2233	-0.245357	0.000000	303	302.95	0.000000	1.065513	1.295877
	58.2283	-0.245357	0.000000	303	302.95	0.000000	1.065513	1.295877
	58.2333	-0.245571	0.000000	303	302.945	0.000000	1.065513	1.295663
	58.2383	-0.245464	0.000000	303	302.95	0.000000	1.065513	1.295770
	58.2433	-0.245251	0.000000	303	302.945	0.000000	1.065513	1.295983
	58.2483	-0.244825	0.000000	303	302.945	0.000000	1.065513	1.296409
	58.2533	-0.244825	0.000000	303	302.95	0.000000	1.065513	1.296409
	58.2583	-0.244931	0.000000	303	302.95	0.000000	1.065513	1.296303
	58.2633	-0.244931	0.000000	303	302.95	0.000000	1.065513	1.296303
	58.2683	-0.244931	0.000000	303	302.945	0.000000	1.065513	1.296303
	58.2733	-0.244718	0.000000	303	302.95	0.000000	1.065513	1.296516
	58.2783	-0.244398	0.000000	303	302.95	0.000000	1.065513	1.296836
	58.2833	-0.244292	0.000000	303	302.95	0.000000	1.065513	1.296942
	58.2883	-0.243972	0.000000	303	302.95	0.000000	1.065513	1.297262
	58.2933	-0.244292	0.000000	303	302.95	0.000000	1.065513	1.296942
	58.2983	-0.243972	0.000000	303	302.95	0.000000	1.065513	1.297262
	58.3033	-0.243866	0.000000	303	302.95	0.000000	1.065513	1.297368
	58.3083	-0.243866	0.000000	303	302.95	0.000000	1.065513	1.297368
	58.3133	-0.243972	0.000000	303	302.95	0.000000	1.065513	1.297262
	58.3183	-0.243972	0.000000	303	302.95	0.000000	1.065513	1.297262
	58.3233	-0.243759	0.000000	303	302.95	0.000000	1.065513	1.297475
	58.3283	-0.243759	0.000000	303	302.945	0.000000	1.065513	1.297475
	58.3333	-0.243759	0.000000	303	302.95	0.000000	1.065513	1.297475
	58.3383	-0.243866	0.000000	303	302.95	0.000000	1.065513	1.297368
	58.3433	-0.244185	0.000000	303	302.95	0.000000	1.065513	1.297049
	58.3483	-0.244185	0.000000	303	302.95	0.000000	1.065513	1.297049
	58.3533	-0.244185	0.000000	303	302.95	0.000000	1.065513	1.297049
	58.3583	-0.244292	0.000000	303	302.95	0.000000	1.065513	1.296942
	58.3633	-0.244185	0.000000	303	302.945	0.000000	1.065513	1.297049
	58.3683	-0.244292	0.000000	303	302.95	0.000000	1.065513	1.296942
	58.3733	-0.244079	0.000000	303	302.95	0.000000	1.065513	1.297155
	58.3783	-0.243866	0.000000	303	302.95	0.000000	1.065513	1.297368
	58.3833	-0.243972	0.000000	303	302.95	0.000000	1.065513	1.297262
	58.3883	-0.244079	0.000000	303	302.95	0.000000	1.065513	1.297155
	58.3933	-0.244185	0.000000	303	302.945	0.000000	1.065513	1.297049
	58.3983	-0.244505	0.000000	303	302.95	0.000000	1.065513	1.296729
	58.4033	-0.244612	0.000000	303	302.95	0.000000	1.065513	1.296622
	58.4083	-0.244292	0.000000	303	302.945	0.000000	1.065513	1.296942
	58.4133	-0.244185	0.000000	303	302.95	0.000000	1.065513	1.297049
	58.4183	-0.244079	0.000000	303	302.95	0.000000	1.065513	1.297155
	58.4233	-0.244079	0.000000	303	302.945	0.000000	1.065513	1.297155
	58.4283	-0.243759	0.000000	303	302.945	0.000000	1.065513	1.297475
	58.4333	-0.243866	0.000000	303	302.95	0.000000	1.065513	1.297368
	58.4383	-0.243866	0.000000	303	302.954	0.000000	1.065513	1.297368
	58.4433	-0.243972	0.000000	303	302.95	0.000000	1.065513	1.297262
	58.4483	-0.244079	0.000000	303	302.945	0.000000	1.065513	1.297155
	58.4533	-0.244292	0.000000	303	302.95	0.000000	1.065513	1.296942
	58.4583	-0.244079	0.000000	303	302.95	0.000000	1.065513	1.297155
	58.4633	-0.244185	0.000000	303	302.945	0.000000	1.065513	1.297049
	58.4683	-0.244399	0.000000	303	302.945	0.000000	1.065513	1.296835
	58.4733	-0.244931	0.000000	303	302.95	0.000000	1.065513	1.296303
	58.4783	-0.244825	0.000000	303	302.95	0.000000	1.065513	1.296409
	58.4833	-0.245038	0.000000	303	302.95	0.000000	1.065513	1.296196
	58.4883	-0.245144	0.000000	303	302.95	0.000000	1.065513	1.296090
	58.4933	-0.245144	0.000000	303	302.95	0.000000	1.065513	1.296090
	58.4983	-0.245357	0.000000	303	302.945	0.000000	1.065513	1.295876
	58.5033	-0.245570	0.000000	303	302.95	0.000000	1.065513	1.295663
	58.5083	-0.245571	0.000000	303	302.945	0.000000	1.065513	1.295663
	58.5133	-0.245997	0.000000	303	302.95	0.000000	1.065513	1.295237
	58.5183	-0.246103	0.000000	303	302.945	0.000000	1.065513	1.295131
	58.5233	-0.245890	0.000000	303	302.95	0.000000	1.065513	1.295344
	58.5283	-0.245997	0.000000	303	302.95	0.000000	1.065513	1.295237
	58.5333	-0.246103	0.000000	303	302.945	0.000000	1.065513	1.295131
	58.5383	-0.246103	0.000000	303	302.95	0.000000	1.065513	1.295131
	58.5433	-0.246530	0.000000	303	302.945	0.000000	1.065513	1.294704
	58.5483	-0.246530	0.000000	303	302.945	0.000000	1.065513	1.294704
	58.5533	-0.246529	0.000000	303	302.95	0.000000	1.065513	1.294704
	58.5583	-0.246529	0.000000	303	302.95	0.000000	1.065513	1.294704
	58.5633	-0.246636	0.000000	303	302.95	0.000000	1.065513	1.294598
	58.5683	-0.246743	0.000000	303	302.95	0.000000	1.065513	1.294491
	58.5733	-0.246743	0.000000	303	302.95	0.000000	1.065513	1.294491
	58.5783	-0.246849	0.000000	303	302.95	0.000000	1.065513	1.294385
	58.5833	-0.246956	0.000000	303	302.95	0.000000	1.065513	1.294278
	58.5883	-0.247062	0.000000	303	302.95	0.000000	1.065513	1.294172
	58.5933	-0.246849	0.000000	303	302.95	0.000000	1.065513	1.294385
	58.5983	-0.246849	0.000000	303	302.945	0.000000	1.065513	1.294385
	58.6033	-0.246743	0.000000	303	302.95	0.000000	1.065513	1.294491
	58.6083	-0.246743	0.000000	303	302.95	0.000000	1.065513	1.294491
	58.6133	-0.246849	0.000000	303	302.95	0.000000	1.065513	1.294385
	58.6183	-0.247062	0.000000	303	302.95	0.000000	1.065513	1.294172
	58.6233	-0.247275	0.000000	303	302.95	0.000000	1.065513	1.293959
	58.6283	-0.247702	0.000000	303	302.95	0.000000	1.065513	1.293532
	58.6333	-0.247808	0.000000	303	302.945	0.000000	1.065513	1.293426
	58.6383	-0.248021	0.000000	303	302.945	0.000000	1.065513	1.293213
	58.6433	-0.247915	0.000000	303	302.95	0.000000	1.065513	1.293319
	58.6483	-0.247915	0.000000	303	302.95	0.000000	1.065513	1.293319
	58.6533	-0.248448	0.000000	303	302.941	0.000000	1.065513	1.292786
	58.6583	-0.248554	0.000000	303	302.95	0.000000	1.065513	1.292680
	58.6633	-0.248554	0.000000	303	302.95	0.000000	1.065513	1.292680
	58.6683	-0.248661	0.000000	303	302.945	0.000000	1.065513	1.292573
	58.6733	-0.248661	0.000000	303	302.945	0.000000	1.065513	1.292573
	58.6783	-0.248874	0.000000	303	302.95	0.000000	1.065513	1.292360
	58.6833	-0.248980	0.000000	303	302.95	0.000000	1.065513	1.292254
	58.6883	-0.248767	0.000000	303	302.95	0.000000	1.065513	1.292467
	58.6933	-0.248554	0.000000	303	302.95	0.000000	1.065513	1.292680
	58.6983	-0.248341	0.000000	303	302.95	0.000000	1.065513	1.292893
	58.7033	-0.248341	0.000000	303	302.95	0.000000	1.065513	1.292893
	58.7083	-0.248341	0.000000	303	302.95	0.000000	1.065513	1.292893
	58.7133	-0.248341	0.000000	303	302.95	0.000000	1.065513	1.292893
	58.7183	-0.248128	0.000000	303	302.945	0.000000	1.065513	1.293106
	58.7233	-0.248021	0.000000	303	302.95	0.000000	1.065513	1.293213
	58.7283	-0.248021	0.000000	303	302.945	0.000000	1.065513	1.293213
	58.7333	-0.248234	0.000000	303	302.95	0.000000	1.065513	1.293000
	58.7383	-0.248341	0.000000	303	302.954	0.000000	1.065513	1.292893
	58.7433	-0.248447	0.000000	303	302.945	0.000000	1.065513	1.292786
	58.7483	-0.248341	0.000000	303	302.945	0.000000	1.065513	1.292893
	58.7533	-0.248660	0.000000	303	302.95	0.000000	1.065513	1.292573
	58.7583	-0.248767	0.000000	303	302.945	0.000000	1.065513	1.292467
	58.7633	-0.248554	0.000000	303	302.95	0.000000	1.065513	1.292680
	58.7683	-0.248447	0.000000	303	302.95	0.000000	1.065513	1.292787
	58.7733	-0.248874	0.000000	303	302.954	0.000000	1.065513	1.292360
	58.7783	-0.249087	0.000000	303	302.945	0.000000	1.065513	1.292147
	58.7833	-0.249406	0.000000	303	302.95	0.000000	1.065513	1.291828
	58.7883	-0.249513	0.000000	303	302.95	0.000000	1.065513	1.291721
	58.7933	-0.249406	0.000000	303	302.945	0.000000	1.065513	1.291828
	58.7983	-0.249513	0.000000	303	302.95	0.000000	1.065513	1.291721
	58.8033	-0.249406	0.000000	303	302.945	0.000000	1.065513	1.291828
	58.8083	-0.249300	0.000000	303	302.95	0.000000	1.065513	1.291934
	58.8133	-0.249193	0.000000	303	302.95	0.000000	1.065513	1.292041
	58.8183	-0.249300	0.000000	303	302.95	0.000000	1.065513	1.291934
	58.8233	-0.249087	0.000000	303	302.945	0.000000	1.065513	1.292147
	58.8283	-0.248980	0.000000	303	302.945	0.000000	1.065513	1.292254
	58.8333	-0.249087	0.000000	303	302.95	0.000000	1.065513	1.292147
	58.8383	-0.249087	0.000000	303	302.945	0.000000	1.065513	1.292147
	58.8433	-0.249406	0.000000	303	302.95	0.000000	1.065513	1.291828
	58.8483	-0.249300	0.000000	303	302.95	0.000000	1.065513	1.291934
	58.8533	-0.249193	0.000000	303	302.95	0.000000	1.065513	1.292041
	58.8583	-0.249300	0.000000	303	302.95	0.000000	1.065513	1.291934
	58.8633	-0.249300	0.000000	303	302.95	0.000000	1.065513	1.291934
	58.8683	-0.249300	0.000000	303	302.945	0.000000	1.065513	1.291934
	58.8733	-0.249087	0.000000	303	302.95	0.000000	1.065513	1.292147
	58.8783	-0.248980	0.000000	303	302.95	0.000000	1.065513	1.292254
	58.8833	-0.248980	0.000000	303	302.95	0.000000	1.065513	1.292254
	58.8883	-0.249193	0.000000	303	302.945	0.000000	1.065513	1.292041
	58.8933	-0.249087	0.000000	303	302.945	0.000000	1.065513	1.292147
	58.8983	-0.248980	0.000000	303	302.945	0.000000	1.065513	1.292254
	58.9033	-0.248980	0.000000	303	302.95	0.000000	1.065513	1.292254
	58.9083	-0.249087	0.000000	303	302.95	0.000000	1.065513	1.292147
	58.9133	-0.249193	0.000000	303	302.95	0.000000	1.065513	1.292041
	58.9183	-0.249300	0.000000	303	302.954	0.000000	1.065513	1.291934
	58.9233	-0.249300	0.000000	303	302.95	0.000000	1.065513	1.291934
	58.9283	-0.248980	0.000000	303	302.945	0.000000	1.065513	1.292254
	58.9333	-0.248767	0.000000	303	302.95	0.000000	1.065513	1.292467
	58.9383	-0.248660	0.000000	303	302.95	0.000000	1.065513	1.292573
	58.9433	-0.248767	0.000000	303	302.95	0.000000	1.065513	1.292467
	58.9483	-0.248980	0.000000	303	302.95	0.000000	1.065513	1.292254
	58.9533	-0.249087	0.000000	303	302.945	0.000000	1.065513	1.292147
	58.9583	-0.249193	0.000000	303	302.95	0.000000	1.065513	1.292041
	58.9633	-0.249406	0.000000	303	302.95	0.000000	1.065513	1.291828
	58.9683	-0.249513	0.000000	303	302.95	0.000000	1.065513	1.291721
	58.9733	-0.249513	0.000000	303	302.945	0.000000	1.065513	1.291721
	58.9783	-0.249193	0.000000	303	302.95	0.000000	1.065513	1.292041
	58.9833	-0.249300	0.000000	303	302.95	0.000000	1.065513	1.291934
	58.9883	-0.249513	0.000000	303	302.954	0.000000	1.065513	1.291721
	58.9933	-0.249726	0.000000	303	302.95	0.000000	1.065513	1.291508
	58.9983	-0.249620	0.000000	303	302.945	0.000000	1.065513	1.291614
	59.0033	-0.249620	0.000000	303	302.941	0.000000	1.065513	1.291614
	59.0083	-0.249726	0.000000	303	302.95	0.000000	1.065513	1.291508
	59.0133	-0.249619	0.000000	303	302.95	0.000000	1.065513	1.291615
	59.0183	-0.249726	0.000000	303	302.95	0.000000	1.065513	1.291508
	59.0233	-0.249939	0.000000	303	302.95	0.000000	1.065513	1.291295
	59.0283	-0.250152	0.000000	303	302.95	0.000000	1.065513	1.291082
	59.0333	-0.250365	0.000000	303	302.945	0.000000	1.065513	1.290869
	59.0383	-0.250578	0.000000	303	302.95	0.000000	1.065513	1.290656
	59.0433	-0.250898	0.000000	303	302.95	0.000000	1.065513	1.290336
	59.0483	-0.250792	0.000000	303	302.95	0.000000	1.065513	1.290442
	59.0533	-0.251111	0.000000	303	302.95	0.000000	1.065513	1.290123
	59.0583	-0.251218	0.000000	303	302.945	0.000000	1.065513	1.290016
	59.0633	-0.251431	0.000000	303	302.95	0.000000	1.065513	1.289803
	59.0683	-0.251537	0.000000	303	302.95	0.000000	1.065513	1.289697
	59.0733	-0.251964	0.000000	303	302.95	0.000000	1.065513	1.289270
	59.0783	-0.252177	0.000000	303	302.945	0.000000	1.065513	1.289057
	59.0833	-0.252283	0.000000	303	302.95	0.000000	1.065513	1.288951
	59.0883	-0.252603	0.000000	303	302.945	0.000000	1.065513	1.288631
	59.0933	-0.252816	0.000000	303	302.95	0.000000	1.065513	1.288418
	59.0983	-0.253136	0.000000	303	302.95	0.000000	1.065513	1.288098
	59.1033	-0.253242	0.000000	303	302.95	0.000000	1.065513	1.287992
	59.1083	-0.253242	0.000000	303	302.95	0.000000	1.065513	1.287992
	59.1133	-0.253242	0.000000	303	302.95	0.000000	1.065513	1.287992
	59.1183	-0.253136	0.000000	303	302.95	0.000000	1.065513	1.288098
	59.1233	-0.253349	0.000000	303	302.95	0.000000	1.065513	1.287885
	59.1283	-0.253349	0.000000	303	302.95	0.000000	1.065513	1.287885
	59.1333	-0.253668	0.000000	303	302.945	0.000000	1.065513	1.287565
	59.1383	-0.253668	0.000000	303	302.95	0.000000	1.065513	1.287566
	59.1433	-0.253988	0.000000	303	302.95	0.000000	1.065513	1.287246
	59.1483	-0.254201	0.000000	303	302.945	0.000000	1.065513	1.287033
	59.1533	-0.254414	0.000000	303	302.95	0.000000	1.065513	1.286820
	59.1583	-0.254414	0.000000	303	302.95	0.000000	1.065513	1.286820
	59.1633	-0.254414	0.000000	303	302.95	0.000000	1.065513	1.286820
	59.1683	-0.254201	0.000000	303	302.95	0.000000	1.065513	1.287033
	59.1733	-0.254308	0.000000	303	302.95	0.000000	1.065513	1.286926
	59.1783	-0.254414	0.000000	303	302.945	0.000000	1.065513	1.286820
	59.1833	-0.254627	0.000000	303	302.95	0.000000	1.065513	1.286607
	59.1883	-0.254947	0.000000	303	302.95	0.000000	1.065513	1.286287
	59.1933	-0.255054	0.000000	303	302.95	0.000000	1.065513	1.286180
	59.1983	-0.255373	0.000000	303	302.945	0.000000	1.065513	1.285861
	59.2033	-0.255267	0.000000	303	302.95	0.000000	1.065513	1.285967
	59.2083	-0.255267	0.000000	303	302.95	0.000000	1.065513	1.285967
	59.2133	-0.255054	0.000000	303	302.95	0.000000	1.065513	1.286180
	59.2183	-0.255054	0.000000	303	302.95	0.000000	1.065513	1.286180
	59.2233	-0.254840	0.000000	303	302.95	0.000000	1.065513	1.286393
	59.2283	-0.254840	0.000000	303	302.95	0.000000	1.065513	1.286393
	59.2333	-0.254627	0.000000	303	302.95	0.000000	1.065513	1.286607
	59.2383	-0.254734	0.000000	303	302.95	0.000000	1.065513	1.286500
	59.2433	-0.255054	0.000000	303	302.95	0.000000	1.065513	1.286180
	59.2483	-0.254947	0.000000	303	302.95	0.000000	1.065513	1.286287
	59.2533	-0.255054	0.000000	303	302.95	0.000000	1.065513	1.286180
	59.2583	-0.254947	0.000000	303	302.945	0.000000	1.065513	1.286287
	59.2633	-0.254947	0.000000	303	302.95	0.000000	1.065513	1.286287
	59.2683	-0.255054	0.000000	303	302.95	0.000000	1.065513	1.286180
	59.2733	-0.255160	0.000000	303	302.95	0.000000	1.065513	1.286074
	59.2783	-0.255373	0.000000	303	302.95	0.000000	1.065513	1.285861
	59.2833	-0.255373	0.000000	303	302.95	0.000000	1.065513	1.285861
	59.2883	-0.255480	0.000000	303	302.95	0.000000	1.065513	1.285754
	59.2933	-0.255586	0.000000	303	302.945	0.000000	1.065513	1.285648
	59.2983	-0.255799	0.000000	303	302.95	0.000000	1.065513	1.285435
	59.3033	-0.256119	0.000000	303	302.95	0.000000	1.065513	1.285115
	59.3083	-0.256226	0.000000	303	302.945	0.000000	1.065513	1.285008
	59.3133	-0.256332	0.000000	303	302.945	0.000000	1.065513	1.284902
	59.3183	-0.256545	0.000000	303	302.95	0.000000	1.065513	1.284689
	59.3233	-0.256545	0.000000	303	302.945	0.000000	1.065513	1.284689
	59.3283	-0.256332	0.000000	303	302.95	0.000000	1.065513	1.284902
	59.3333	-0.256439	0.000000	303	302.95	0.000000	1.065513	1.284795
	59.3383	-0.256758	0.000000	303	302.954	0.000000	1.065513	1.284476
	59.3433	-0.256652	0.000000	303	302.95	0.000000	1.065513	1.284582
	59.3483	-0.256865	0.000000	303	302.95	0.000000	1.065513	1.284369
	59.3533	-0.257291	0.000000	303	302.95	0.000000	1.065513	1.283943
	59.3583	-0.257611	0.000000	303	302.95	0.000000	1.065513	1.283623
	59.3633	-0.257504	0.000000	303	302.95	0.000000	1.065513	1.283730
	59.3683	-0.257504	0.000000	303	302.945	0.000000	1.065513	1.283730
	59.3733	-0.257504	0.000000	303	302.95	0.000000	1.065513	1.283730
	59.375	-0.257398	0.000000	303	302.95	0.000000	1.065513	1.283836